File: Cu_alloys_database_2023_06_06.csv
Alloy formula;Alloy class;Cu;Al;Ag;B;Be;Ca;Co;Ce;Cr;Fe;Hf;La;Mg;Mn;Mo;Nb;Nd;Ni;P;Pb;Pr;Si;Sn;Ti;V;Zn;Zr;Tss (K);tss (h);CR reduction (%);Aging;Tag (K);tag (h);Secondary thermo-mechanical process;Hardness (HV);Yield strength (MPa);Ultimate tensile strength (MPa);Electrical conductivity (%IACS);DOI
Cu-0.1Ag–0.3Cr;Cu low alloyed;99.6;0;0.1;0;0;0;0;0;0.3;0;0;0;0;0;0;0;0;0;0;0;0;0;0;0;0;0;0;1223;1;0;N;;;N;85;;;45;http://dx.doi.org/10.1016/j.msea.2005.09.118
Cu-0.1Ag–0.3Cr;Cu low alloyed;99.6;0;0.1;0;0;0;0;0;0.3;0;0;0;0;0;0;0;0;0;0;0;0;0;0;0;0;0;0;1223;1;0;Y;673;0.25;N;87;;;45;http://dx.doi.org/10.1016/j.msea.2005.09.118
Cu-0.1Ag–0.3Cr;Cu low alloyed;99.6;0;0.1;0;0;0;0;0;0.3;0;0;0;0;0;0;0;0;0;0;0;0;0;0;0;0;0;0;1223;1;0;Y;673;0.5;N;88;;;47;http://dx.doi.org/10.1016/j.msea.2005.09.118
Cu-0.1Ag–0.3Cr;Cu low alloyed;99.6;0;0.1;0;0;0;0;0;0.3;0;0;0;0;0;0;0;0;0;0;0;0;0;0;0;0;0;0;1223;1;0;Y;673;1;N;92;;;50;http://dx.doi.org/10.1016/j.msea.2005.09.118
Cu-0.1Ag–0.3Cr;Cu low alloyed;99.6;0;0.1;0;0;0;0;0;0.3;0;0;0;0;0;0;0;0;0;0;0;0;0;0;0;0;0;0;1223;1;0;Y;673;2;N;100;;;59;http://dx.doi.org/10.1016/j.msea.2005.09.118
Cu-0.1Ag–0.3Cr;Cu low alloyed;99.6;0;0.1;0;0;0;0;0;0.3;0;0;0;0;0;0;0;0;0;0;0;0;0;0;0;0;0;0;1223;1;0;Y;673;4;N;112;;;74;http://dx.doi.org/10.1016/j.msea.2005.09.118
Cu-0.1Ag–0.3Cr;Cu low alloyed;99.6;0;0.1;0;0;0;0;0;0.3;0;0;0;0;0;0;0;0;0;0;0;0;0;0;0;0;0;0;1223;1;0;Y;673;8;N;120;;;78;http://dx.doi.org/10.1016/j.msea.2005.09.118
Cu-0.1Ag–0.3Cr;Cu low alloyed;99.6;0;0.1;0;0;0;0;0;0.3;0;0;0;0;0;0;0;0;0;0;0;0;0;0;0;0;0;0;1223;1;0;Y;673;16;N;126;;;80;http://dx.doi.org/10.1016/j.msea.2005.09.118
Cu-0.1Ag–0.3Cr;Cu low alloyed;99.6;0;0.1;0;0;0;0;0;0.3;0;0;0;0;0;0;0;0;0;0;0;0;0;0;0;0;0;0;1223;1;0;Y;723;0.25;N;101;;;55;http://dx.doi.org/10.1016/j.msea.2005.09.118
Cu-0.1Ag–0.3Cr;Cu low alloyed;99.6;0;0.1;0;0;0;0;0;0.3;0;0;0;0;0;0;0;0;0;0;0;0;0;0;0;0;0;0;1223;1;0;Y;723;0.5;N;124;;;66;http://dx.doi.org/10.1016/j.msea.2005.09.118
Cu-0.1Ag–0.3Cr;Cu low alloyed;99.6;0;0.1;0;0;0;0;0;0.3;0;0;0;0;0;0;0;0;0;0;0;0;0;0;0;0;0;0;1223;1;0;Y;723;1;N;132;;;78;http://dx.doi.org/10.1016/j.msea.2005.09.118
Cu-0.1Ag–0.3Cr;Cu low alloyed;99.6;0;0.1;0;0;0;0;0;0.3;0;0;0;0;0;0;0;0;0;0;0;0;0;0;0;0;0;0;1223;1;0;Y;723;2;N;138;;;81;http://dx.doi.org/10.1016/j.msea.2005.09.118
Cu-0.1Ag–0.3Cr;Cu low alloyed;99.6;0;0.1;0;0;0;0;0;0.3;0;0;0;0;0;0;0;0;0;0;0;0;0;0;0;0;0;0;1223;1;0;Y;723;4;N;144;;;82;http://dx.doi.org/10.1016/j.msea.2005.09.118
Cu-0.1Ag–0.3Cr;Cu low alloyed;99.6;0;0.1;0;0;0;0;0;0.3;0;0;0;0;0;0;0;0;0;0;0;0;0;0;0;0;0;0;1223;1;0;Y;723;8;N;140;;;83;http://dx.doi.org/10.1016/j.msea.2005.09.118
Cu-0.1Ag–0.3Cr;Cu low alloyed;99.6;0;0.1;0;0;0;0;0;0.3;0;0;0;0;0;0;0;0;0;0;0;0;0;0;0;0;0;0;1223;1;0;Y;723;16;N;134;;;84;http://dx.doi.org/10.1016/j.msea.2005.09.118
Cu-0.1Ag–0.3Cr;Cu low alloyed;99.6;0;0.1;0;0;0;0;0;0.3;0;0;0;0;0;0;0;0;0;0;0;0;0;0;0;0;0;0;1223;1;0;Y;823;0.25;N;115;;;81;http://dx.doi.org/10.1016/j.msea.2005.09.118
Cu-0.1Ag–0.3Cr;Cu low alloyed;99.6;0;0.1;0;0;0;0;0;0.3;0;0;0;0;0;0;0;0;0;0;0;0;0;0;0;0;0;0;1223;1;0;Y;823;0.5;N;127;;;84;http://dx.doi.org/10.1016/j.msea.2005.09.118
Cu-0.1Ag–0.3Cr;Cu low alloyed;99.6;0;0.1;0;0;0;0;0;0.3;0;0;0;0;0;0;0;0;0;0;0;0;0;0;0;0;0;0;1223;1;0;Y;823;1;N;124;;;84;http://dx.doi.org/10.1016/j.msea.2005.09.118
Cu-0.1Ag–0.3Cr;Cu low alloyed;99.6;0;0.1;0;0;0;0;0;0.3;0;0;0;0;0;0;0;0;0;0;0;0;0;0;0;0;0;0;1223;1;0;Y;823;2;N;120;;;84;http://dx.doi.org/10.1016/j.msea.2005.09.118
Cu-0.1Ag–0.3Cr;Cu low alloyed;99.6;0;0.1;0;0;0;0;0;0.3;0;0;0;0;0;0;0;0;0;0;0;0;0;0;0;0;0;0;1223;1;0;Y;823;4;N;115;;;85;http://dx.doi.org/10.1016/j.msea.2005.09.118
Cu-0.1Ag–0.3Cr;Cu low alloyed;99.6;0;0.1;0;0;0;0;0;0.3;0;0;0;0;0;0;0;0;0;0;0;0;0;0;0;0;0;0;1223;1;0;Y;823;8;N;110;;;85;http://dx.doi.org/10.1016/j.msea.2005.09.118
Cu-0.1Ag–0.3Cr;Cu low alloyed;99.6;0;0.1;0;0;0;0;0;0.3;0;0;0;0;0;0;0;0;0;0;0;0;0;0;0;0;0;0;1223;1;0;Y;823;16;N;103;;;86;http://dx.doi.org/10.1016/j.msea.2005.09.118
Cu-0.1Cr-0.06Zr;Cu low alloyed;99.84;0;0;0;0;0;0;0;0.1;0;0;0;0;0;0;0;0;0;0;0;0;0;0;0;0;0;0.06;1273;1;0;N;;;N;71;;;60;http://dx.doi.org/10.1016/j.matlet.2017.04.039
Cu-0.1Cr-0.06Zr;Cu low alloyed;99.84;0;0;0;0;0;0;0;0.1;0;0;0;0;0;0;0;0;0;0;0;0;0;0;0;0;0;0.06;1273;1;0;Y;373;1;N;68;;;58;http://dx.doi.org/10.1016/j.matlet.2017.04.039
Cu-0.1Cr-0.06Zr;Cu low alloyed;99.84;0;0;0;0;0;0;0;0.1;0;0;0;0;0;0;0;0;0;0;0;0;0;0;0;0;0;0.06;1273;1;0;Y;473;1;N;78;;;59;http://dx.doi.org/10.1016/j.matlet.2017.04.039
Cu-0.1Cr-0.06Zr;Cu low alloyed;99.84;0;0;0;0;0;0;0;0.1;0;0;0;0;0;0;0;0;0;0;0;0;0;0;0;0;0;0.06;1273;1;0;Y;523;1;N;78;;;59;http://dx.doi.org/10.1016/j.matlet.2017.04.039
Cu-0.1Cr-0.06Zr;Cu low alloyed;99.84;0;0;0;0;0;0;0;0.1;0;0;0;0;0;0;0;0;0;0;0;0;0;0;0;0;0;0.06;1273;1;0;Y;573;1;N;72;;;59;http://dx.doi.org/10.1016/j.matlet.2017.04.039
Cu-0.1Cr-0.06Zr;Cu low alloyed;99.84;0;0;0;0;0;0;0;0.1;0;0;0;0;0;0;0;0;0;0;0;0;0;0;0;0;0;0.06;1273;1;0;Y;623;1;N;78;;;61;http://dx.doi.org/10.1016/j.matlet.2017.04.039
Cu-0.1Cr-0.06Zr;Cu low alloyed;99.84;0;0;0;0;0;0;0;0.1;0;0;0;0;0;0;0;0;0;0;0;0;0;0;0;0;0;0.06;1273;1;0;Y;673;1;N;80;;;63;http://dx.doi.org/10.1016/j.matlet.2017.04.039
Cu-0.1Cr-0.06Zr;Cu low alloyed;99.84;0;0;0;0;0;0;0;0.1;0;0;0;0;0;0;0;0;0;0;0;0;0;0;0;0;0;0.06;1273;1;0;Y;723;1;N;96;;;67;http://dx.doi.org/10.1016/j.matlet.2017.04.039
Cu-0.1Cr-0.06Zr;Cu low alloyed;99.84;0;0;0;0;0;0;0;0.1;0;0;0;0;0;0;0;0;0;0;0;0;0;0;0;0;0;0.06;1273;1;0;Y;773;1;N;112;;;78;http://dx.doi.org/10.1016/j.matlet.2017.04.039
Cu-0.1Cr-0.06Zr;Cu low alloyed;99.84;0;0;0;0;0;0;0;0.1;0;0;0;0;0;0;0;0;0;0;0;0;0;0;0;0;0;0.06;1273;1;0;Y;823;1;N;116;;;92;http://dx.doi.org/10.1016/j.matlet.2017.04.039
Cu-0.5Cr-0.08Zr;Cu low alloyed;99.42;0;0;0;0;0;0;0;0.5;0;0;0;0;0;0;0;0;0;0;0;0;0;0;0;0;0;0.08;1273;1;0;N;;;N;82;;;39;http://dx.doi.org/10.1016/j.matlet.2017.04.039
Cu-0.5Cr-0.08Zr;Cu low alloyed;99.42;0;0;0;0;0;0;0;0.5;0;0;0;0;0;0;0;0;0;0;0;0;0;0;0;0;0;0.08;1273;1;0;Y;373;1;N;76;;;38;http://dx.doi.org/10.1016/j.matlet.2017.04.039
Cu-0.5Cr-0.08Zr;Cu low alloyed;99.42;0;0;0;0;0;0;0;0.5;0;0;0;0;0;0;0;0;0;0;0;0;0;0;0;0;0;0.08;1273;1;0;Y;473;1;N;75;;;37;http://dx.doi.org/10.1016/j.matlet.2017.04.039
Cu-0.5Cr-0.08Zr;Cu low alloyed;99.42;0;0;0;0;0;0;0;0.5;0;0;0;0;0;0;0;0;0;0;0;0;0;0;0;0;0;0.08;1273;1;0;Y;523;1;N;75;;;37;http://dx.doi.org/10.1016/j.matlet.2017.04.039
Cu-0.5Cr-0.08Zr;Cu low alloyed;99.42;0;0;0;0;0;0;0;0.5;0;0;0;0;0;0;0;0;0;0;0;0;0;0;0;0;0;0.08;1273;1;0;Y;573;1;N;79;;;38;http://dx.doi.org/10.1016/j.matlet.2017.04.039
Cu-0.5Cr-0.08Zr;Cu low alloyed;99.42;0;0;0;0;0;0;0;0.5;0;0;0;0;0;0;0;0;0;0;0;0;0;0;0;0;0;0.08;1273;1;0;Y;623;1;N;80;;;39;http://dx.doi.org/10.1016/j.matlet.2017.04.039
Cu-0.5Cr-0.08Zr;Cu low alloyed;99.42;0;0;0;0;0;0;0;0.5;0;0;0;0;0;0;0;0;0;0;0;0;0;0;0;0;0;0.08;1273;1;0;Y;673;1;N;76;;;40;http://dx.doi.org/10.1016/j.matlet.2017.04.039
Cu-0.5Cr-0.08Zr;Cu low alloyed;99.42;0;0;0;0;0;0;0;0.5;0;0;0;0;0;0;0;0;0;0;0;0;0;0;0;0;0;0.08;1273;1;0;Y;723;1;N;105;;;61;http://dx.doi.org/10.1016/j.matlet.2017.04.039
Cu-0.5Cr-0.08Zr;Cu low alloyed;99.42;0;0;0;0;0;0;0;0.5;0;0;0;0;0;0;0;0;0;0;0;0;0;0;0;0;0;0.08;1273;1;0;Y;773;1;N;155;;;74;http://dx.doi.org/10.1016/j.matlet.2017.04.039
Cu-0.5Cr-0.08Zr;Cu low alloyed;99.42;0;0;0;0;0;0;0;0.5;0;0;0;0;0;0;0;0;0;0;0;0;0;0;0;0;0;0.08;1273;1;0;Y;823;1;N;141;;;85;http://dx.doi.org/10.1016/j.matlet.2017.04.039
Cu-1Cr-0.1Zr;Cu low alloyed;98.9;0;0;0;0;0;0;0;1;0;0;0;0;0;0;0;0;0;0;0;0;0;0;0;0;0;0.1;1273;1;0;N;;;N;81;;;37;http://dx.doi.org/10.1016/j.matlet.2017.04.039
Cu-1Cr-0.1Zr;Cu low alloyed;98.9;0;0;0;0;0;0;0;1;0;0;0;0;0;0;0;0;0;0;0;0;0;0;0;0;0;0.1;1273;1;0;Y;373;1;N;86;;;37;http://dx.doi.org/10.1016/j.matlet.2017.04.039
Cu-1Cr-0.1Zr;Cu low alloyed;98.9;0;0;0;0;0;0;0;1;0;0;0;0;0;0;0;0;0;0;0;0;0;0;0;0;0;0.1;1273;1;0;Y;473;1;N;80;;;38;http://dx.doi.org/10.1016/j.matlet.2017.04.039
Cu-1Cr-0.1Zr;Cu low alloyed;98.9;0;0;0;0;0;0;0;1;0;0;0;0;0;0;0;0;0;0;0;0;0;0;0;0;0;0.1;1273;1;0;Y;523;1;N;81;;;38;http://dx.doi.org/10.1016/j.matlet.2017.04.039
Cu-1Cr-0.1Zr;Cu low alloyed;98.9;0;0;0;0;0;0;0;1;0;0;0;0;0;0;0;0;0;0;0;0;0;0;0;0;0;0.1;1273;1;0;Y;573;1;N;75;;;39;http://dx.doi.org/10.1016/j.matlet.2017.04.039
Cu-1Cr-0.1Zr;Cu low alloyed;98.9;0;0;0;0;0;0;0;1;0;0;0;0;0;0;0;0;0;0;0;0;0;0;0;0;0;0.1;1273;1;0;Y;623;1;N;86;;;40;http://dx.doi.org/10.1016/j.matlet.2017.04.039
Cu-1Cr-0.1Zr;Cu low alloyed;98.9;0;0;0;0;0;0;0;1;0;0;0;0;0;0;0;0;0;0;0;0;0;0;0;0;0;0.1;1273;1;0;Y;673;1;N;92;;;42;http://dx.doi.org/10.1016/j.matlet.2017.04.039
Cu-1Cr-0.1Zr;Cu low alloyed;98.9;0;0;0;0;0;0;0;1;0;0;0;0;0;0;0;0;0;0;0;0;0;0;0;0;0;0.1;1273;1;0;Y;723;1;N;104;;;57;http://dx.doi.org/10.1016/j.matlet.2017.04.039
Cu-1Cr-0.1Zr;Cu low alloyed;98.9;0;0;0;0;0;0;0;1;0;0;0;0;0;0;0;0;0;0;0;0;0;0;0;0;0;0.1;1273;1;0;Y;773;1;N;148;;;73;http://dx.doi.org/10.1016/j.matlet.2017.04.039
Cu-1Cr-0.1Zr;Cu low alloyed;98.9;0;0;0;0;0;0;0;1;0;0;0;0;0;0;0;0;0;0;0;0;0;0;0;0;0;0.1;1273;1;0;Y;823;1;N;145;;;83;http://dx.doi.org/10.1016/j.matlet.2017.04.039
Cu-0.3Cr-0.5Zr;Cu low alloyed;99.2;0;0;0;0;0;0;0;0.3;0;0;0;0;0;0;0;0;0;0;0;0;0;0;0;0;0;0.5;1273;1;0;N;;;N;90;;;33;http://dx.doi.org/10.1016/j.matlet.2017.04.039
Cu-0.3Cr-0.5Zr;Cu low alloyed;99.2;0;0;0;0;0;0;0;0.3;0;0;0;0;0;0;0;0;0;0;0;0;0;0;0;0;0;0.5;1273;1;0;Y;373;1;N;83;;;32;http://dx.doi.org/10.1016/j.matlet.2017.04.039
Cu-0.3Cr-0.5Zr;Cu low alloyed;99.2;0;0;0;0;0;0;0;0.3;0;0;0;0;0;0;0;0;0;0;0;0;0;0;0;0;0;0.5;1273;1;0;Y;473;1;N;84;;;32;http://dx.doi.org/10.1016/j.matlet.2017.04.039
Cu-0.3Cr-0.5Zr;Cu low alloyed;99.2;0;0;0;0;0;0;0;0.3;0;0;0;0;0;0;0;0;0;0;0;0;0;0;0;0;0;0.5;1273;1;0;Y;523;1;N;84;;;32;http://dx.doi.org/10.1016/j.matlet.2017.04.039
Cu-0.3Cr-0.5Zr;Cu low alloyed;99.2;0;0;0;0;0;0;0;0.3;0;0;0;0;0;0;0;0;0;0;0;0;0;0;0;0;0;0.5;1273;1;0;Y;573;1;N;86;;;33;http://dx.doi.org/10.1016/j.matlet.2017.04.039
Cu-0.3Cr-0.5Zr;Cu low alloyed;99.2;0;0;0;0;0;0;0;0.3;0;0;0;0;0;0;0;0;0;0;0;0;0;0;0;0;0;0.5;1273;1;0;Y;623;1;N;87;;;36;http://dx.doi.org/10.1016/j.matlet.2017.04.039
Cu-0.3Cr-0.5Zr;Cu low alloyed;99.2;0;0;0;0;0;0;0;0.3;0;0;0;0;0;0;0;0;0;0;0;0;0;0;0;0;0;0.5;1273;1;0;Y;673;1;N;88;;;37;http://dx.doi.org/10.1016/j.matlet.2017.04.039
Cu-0.3Cr-0.5Zr;Cu low alloyed;99.2;0;0;0;0;0;0;0;0.3;0;0;0;0;0;0;0;0;0;0;0;0;0;0;0;0;0;0.5;1273;1;0;Y;723;1;N;104;;;43;http://dx.doi.org/10.1016/j.matlet.2017.04.039
Cu-0.3Cr-0.5Zr;Cu low alloyed;99.2;0;0;0;0;0;0;0;0.3;0;0;0;0;0;0;0;0;0;0;0;0;0;0;0;0;0;0.5;1273;1;0;Y;773;1;N;157;;;65;http://dx.doi.org/10.1016/j.matlet.2017.04.039
Cu-0.3Cr-0.5Zr;Cu low alloyed;99.2;0;0;0;0;0;0;0;0.3;0;0;0;0;0;0;0;0;0;0;0;0;0;0;0;0;0;0.5;1273;1;0;Y;823;1;N;144;;;77;http://dx.doi.org/10.1016/j.matlet.2017.04.039
Cu-0.5Zr-0.065B;Cu low alloyed;99.435;0;0;0.065;0;0;0;0;0;0;0;0;0;0;0;0;0;0;0;0;0;0;0;0;0;0;0.5;1208;1;80;N;;;N;;;490;65;https://doi.org/10.1016/j.jallcom.2014.07.010
Cu-0.5Zr-0.065B;Cu low alloyed;99.435;0;0;0.065;0;0;0;0;0;0;0;0;0;0;0;0;0;0;0;0;0;0;0;0;0;0;0.5;1208;1;80;Y;603;1;N;;;502;72;https://doi.org/10.1016/j.jallcom.2014.07.010
Cu-0.5Zr-0.065B;Cu low alloyed;99.435;0;0;0.065;0;0;0;0;0;0;0;0;0;0;0;0;0;0;0;0;0;0;0;0;0;0;0.5;1208;1;80;Y;603;2;N;;;511;73;https://doi.org/10.1016/j.jallcom.2014.07.010
Cu-0.5Zr-0.065B;Cu low alloyed;99.435;0;0;0.065;0;0;0;0;0;0;0;0;0;0;0;0;0;0;0;0;0;0;0;0;0;0;0.5;1208;1;80;Y;603;4;N;;;516;74;https://doi.org/10.1016/j.jallcom.2014.07.010
Cu-0.5Zr-0.065B;Cu low alloyed;99.435;0;0;0.065;0;0;0;0;0;0;0;0;0;0;0;0;0;0;0;0;0;0;0;0;0;0;0.5;1208;1;80;Y;603;6;N;;;520;74;https://doi.org/10.1016/j.jallcom.2014.07.010
Cu-0.5Zr-0.065B;Cu low alloyed;99.435;0;0;0.065;0;0;0;0;0;0;0;0;0;0;0;0;0;0;0;0;0;0;0;0;0;0;0.5;1208;1;80;Y;603;10;N;;;519;74;https://doi.org/10.1016/j.jallcom.2014.07.010
Cu-0.5Zr-0.065B;Cu low alloyed;99.435;0;0;0.065;0;0;0;0;0;0;0;0;0;0;0;0;0;0;0;0;0;0;0;0;0;0;0.5;1208;1;80;Y;633;1;N;;;516;75;https://doi.org/10.1016/j.jallcom.2014.07.010
Cu-0.5Zr-0.065B;Cu low alloyed;99.435;0;0;0.065;0;0;0;0;0;0;0;0;0;0;0;0;0;0;0;0;0;0;0;0;0;0;0.5;1208;1;80;Y;633;2;N;;;524;77;https://doi.org/10.1016/j.jallcom.2014.07.010
Cu-0.5Zr-0.065B;Cu low alloyed;99.435;0;0;0.065;0;0;0;0;0;0;0;0;0;0;0;0;0;0;0;0;0;0;0;0;0;0;0.5;1208;1;80;Y;633;4;N;;;533;78;https://doi.org/10.1016/j.jallcom.2014.07.010
Cu-0.5Zr-0.065B;Cu low alloyed;99.435;0;0;0.065;0;0;0;0;0;0;0;0;0;0;0;0;0;0;0;0;0;0;0;0;0;0;0.5;1208;1;80;Y;633;6;N;;;523;78;https://doi.org/10.1016/j.jallcom.2014.07.010
Cu-0.5Zr-0.065B;Cu low alloyed;99.435;0;0;0.065;0;0;0;0;0;0;0;0;0;0;0;0;0;0;0;0;0;0;0;0;0;0;0.5;1208;1;80;Y;633;10;N;;;507;79;https://doi.org/10.1016/j.jallcom.2014.07.010
Cu-0.5Zr-0.065B;Cu low alloyed;99.435;0;0;0.065;0;0;0;0;0;0;0;0;0;0;0;0;0;0;0;0;0;0;0;0;0;0;0.5;1208;1;80;Y;663;1;N;;;533;78;https://doi.org/10.1016/j.jallcom.2014.07.010
Cu-0.5Zr-0.065B;Cu low alloyed;99.435;0;0;0.065;0;0;0;0;0;0;0;0;0;0;0;0;0;0;0;0;0;0;0;0;0;0;0.5;1208;1;80;Y;663;2;N;;;541;78;https://doi.org/10.1016/j.jallcom.2014.07.010
Cu-0.5Zr-0.065B;Cu low alloyed;99.435;0;0;0.065;0;0;0;0;0;0;0;0;0;0;0;0;0;0;0;0;0;0;0;0;0;0;0.5;1208;1;80;Y;663;4;N;;;524;78;https://doi.org/10.1016/j.jallcom.2014.07.010
Cu-0.5Zr-0.065B;Cu low alloyed;99.435;0;0;0.065;0;0;0;0;0;0;0;0;0;0;0;0;0;0;0;0;0;0;0;0;0;0;0.5;1208;1;80;Y;663;6;N;;;518;79;https://doi.org/10.1016/j.jallcom.2014.07.010
Cu-0.5Zr-0.065B;Cu low alloyed;99.435;0;0;0.065;0;0;0;0;0;0;0;0;0;0;0;0;0;0;0;0;0;0;0;0;0;0;0.5;1208;1;80;Y;663;10;N;;;511;80;https://doi.org/10.1016/j.jallcom.2014.07.010
Cu-0.5Zr-0.065B;Cu low alloyed;99.435;0;0;0.065;0;0;0;0;0;0;0;0;0;0;0;0;0;0;0;0;0;0;0;0;0;0;0.5;1208;1;80;Y;693;1;N;;;524;78;https://doi.org/10.1016/j.jallcom.2014.07.010
Cu-0.5Zr-0.065B;Cu low alloyed;99.435;0;0;0.065;0;0;0;0;0;0;0;0;0;0;0;0;0;0;0;0;0;0;0;0;0;0;0.5;1208;1;80;Y;693;2;N;;;536;79;https://doi.org/10.1016/j.jallcom.2014.07.010
Cu-0.5Zr-0.065B;Cu low alloyed;99.435;0;0;0.065;0;0;0;0;0;0;0;0;0;0;0;0;0;0;0;0;0;0;0;0;0;0;0.5;1208;1;80;Y;693;4;N;;;519;79;https://doi.org/10.1016/j.jallcom.2014.07.010
Cu-0.5Zr-0.065B;Cu low alloyed;99.435;0;0;0.065;0;0;0;0;0;0;0;0;0;0;0;0;0;0;0;0;0;0;0;0;0;0;0.5;1208;1;80;Y;693;6;N;;;507;80;https://doi.org/10.1016/j.jallcom.2014.07.010
Cu-0.5Zr-0.065B;Cu low alloyed;99.435;0;0;0.065;0;0;0;0;0;0;0;0;0;0;0;0;0;0;0;0;0;0;0;0;0;0;0.5;1208;1;80;Y;693;10;N;;;504;80;https://doi.org/10.1016/j.jallcom.2014.07.010
Cu-0.5Zr-0.065B;Cu low alloyed;99.435;0;0;0.065;0;0;0;0;0;0;0;0;0;0;0;0;0;0;0;0;0;0;0;0;0;0;0.5;1208;1;80;Y;723;1;N;;;525;78;https://doi.org/10.1016/j.jallcom.2014.07.010
Cu-0.5Zr-0.065B;Cu low alloyed;99.435;0;0;0.065;0;0;0;0;0;0;0;0;0;0;0;0;0;0;0;0;0;0;0;0;0;0;0.5;1208;1;80;Y;723;2;N;;;534;79;https://doi.org/10.1016/j.jallcom.2014.07.010
Cu-0.5Zr-0.065B;Cu low alloyed;99.435;0;0;0.065;0;0;0;0;0;0;0;0;0;0;0;0;0;0;0;0;0;0;0;0;0;0;0.5;1208;1;80;Y;723;4;N;;;517;80;https://doi.org/10.1016/j.jallcom.2014.07.010
Cu-0.5Zr-0.065B;Cu low alloyed;99.435;0;0;0.065;0;0;0;0;0;0;0;0;0;0;0;0;0;0;0;0;0;0;0;0;0;0;0.5;1208;1;80;Y;723;6;N;;;501;80;https://doi.org/10.1016/j.jallcom.2014.07.010
Cu-0.5Zr-0.065B;Cu low alloyed;99.435;0;0;0.065;0;0;0;0;0;0;0;0;0;0;0;0;0;0;0;0;0;0;0;0;0;0;0.5;1208;1;80;Y;723;10;N;;;493;80;https://doi.org/10.1016/j.jallcom.2014.07.010
Cu-0.5Zr-0.065B;Cu low alloyed;99.435;0;0;0.065;0;0;0;0;0;0;0;0;0;0;0;0;0;0;0;0;0;0;0;0;0;0;0.5;1208;1;80;Y;743;1;N;;;528;78;https://doi.org/10.1016/j.jallcom.2014.07.010
Cu-0.5Zr-0.065B;Cu low alloyed;99.435;0;0;0.065;0;0;0;0;0;0;0;0;0;0;0;0;0;0;0;0;0;0;0;0;0;0;0.5;1208;1;80;Y;743;2;N;;;537;79;https://doi.org/10.1016/j.jallcom.2014.07.010
Cu-0.5Zr-0.065B;Cu low alloyed;99.435;0;0;0.065;0;0;0;0;0;0;0;0;0;0;0;0;0;0;0;0;0;0;0;0;0;0;0.5;1208;1;80;Y;743;4;N;;;515;80;https://doi.org/10.1016/j.jallcom.2014.07.010
Cu-0.5Zr-0.065B;Cu low alloyed;99.435;0;0;0.065;0;0;0;0;0;0;0;0;0;0;0;0;0;0;0;0;0;0;0;0;0;0;0.5;1208;1;80;Y;743;6;N;;;498;81;https://doi.org/10.1016/j.jallcom.2014.07.010
Cu-0.5Zr-0.065B;Cu low alloyed;99.435;0;0;0.065;0;0;0;0;0;0;0;0;0;0;0;0;0;0;0;0;0;0;0;0;0;0;0.5;1208;1;80;Y;743;10;N;;;490;81;https://doi.org/10.1016/j.jallcom.2014.07.010
Cu-0.5Zr-0.065B;Cu low alloyed;99.435;0;0;0.065;0;0;0;0;0;0;0;0;0;0;0;0;0;0;0;0;0;0;0;0;0;0;0.5;1208;1;80;N;;;N;;353;490;65;https://doi.org/10.1016/j.jallcom.2014.07.010
Cu-0.5Zr-0.065B;Cu low alloyed;99.435;0;0;0.065;0;0;0;0;0;0;0;0;0;0;0;0;0;0;0;0;0;0;0;0;0;0;0.5;1208;1;80;Y;743;2;N;;378;536;79;https://doi.org/10.1016/j.jallcom.2014.07.010
Cu-0.5Zr-0.065B;Cu low alloyed;99.435;0;0;0.065;0;0;0;0;0;0;0;0;0;0;0;0;0;0;0;0;0;0;0;0;0;0;0.5;1208;1;80;Y;743;2;Y;;459;551;79;https://doi.org/10.1016/j.jallcom.2014.07.010
Cu-0.5Zr-0.065B;Cu low alloyed;99.435;0;0;0.065;0;0;0;0;0;0;0;0;0;0;0;0;0;0;0;0;0;0;0;0;0;0;0.5;1208;1;80;Y;743;2;Y;;470;551;81;https://doi.org/10.1016/j.jallcom.2014.07.010
Cu-0.5Zr-0.065B;Cu low alloyed;99.435;0;0;0.065;0;0;0;0;0;0;0;0;0;0;0;0;0;0;0;0;0;0;0;0;0;0;0.5;1208;1;80;Y;743;2;Y;;474;568;78;https://doi.org/10.1016/j.jallcom.2014.07.010
Cu-0.5Zr-0.065B;Cu low alloyed;99.435;0;0;0.065;0;0;0;0;0;0;0;0;0;0;0;0;0;0;0;0;0;0;0;0;0;0;0.5;1208;1;80;Y;743;2;Y;;457;574;79;https://doi.org/10.1016/j.jallcom.2014.07.010
Cu-0.22Fe-0.06P;Cu low alloyed;99.72;0;0;0;0;0;0;0;0;0.22;0;0;0;0;0;0;0;0;0;0;0;0;0;0;0;0;0;1173;1.167;50;N;;;N;;449;489;50;https://doi.org/10.1016/j.msea.2006.01.068
Cu-0.22Fe-0.06P;Cu low alloyed;99.72;0;0;0;0;0;0;0;0;0.22;0;0;0;0;0;0;0;0;0;0;0;0;0;0;0;0;0;1173;1.167;50;Y;573;1;N;;415;442;68;https://doi.org/10.1016/j.msea.2006.01.068
Cu-0.22Fe-0.06P;Cu low alloyed;99.72;0;0;0;0;0;0;0;0;0.22;0;0;0;0;0;0;0;0;0;0;0;0;0;0;0;0;0;1173;1.167;50;Y;673;1;N;;307;356;84;https://doi.org/10.1016/j.msea.2006.01.068
Cu-0.22Fe-0.06P;Cu low alloyed;99.72;0;0;0;0;0;0;0;0;0.22;0;0;0;0;0;0;0;0;0;0;0;0;0;0;0;0;0;1173;1.167;50;Y;773;1;N;;233;279;87;https://doi.org/10.1016/j.msea.2006.01.068
Cu-0.22Fe-0.06P-0.02B-0.05Ce;Cu low alloyed;99.65;0;0;0.02;0;0;0;0.05;0;0.22;0;0;0;0;0;0;0;0;0;0;0;0;0;0;0;0;0;1173;1.167;50;N;;;N;;457;481;47;https://doi.org/10.1016/j.msea.2006.01.068
Cu-0.22Fe-0.06P-0.02B-0.05Ce;Cu low alloyed;99.65;0;0;0.02;0;0;0;0.05;0;0.22;0;0;0;0;0;0;0;0;0;0;0;0;0;0;0;0;0;1173;1.167;50;Y;573;1;N;;464;490;63;https://doi.org/10.1016/j.msea.2006.01.068
Cu-0.22Fe-0.06P-0.02B-0.05Ce;Cu low alloyed;99.65;0;0;0.02;0;0;0;0.05;0;0.22;0;0;0;0;0;0;0;0;0;0;0;0;0;0;0;0;0;1173;1.167;50;Y;673;1;N;;470;515;80;https://doi.org/10.1016/j.msea.2006.01.068
Cu-0.22Fe-0.06P-0.02B-0.05Ce;Cu low alloyed;99.65;0;0;0.02;0;0;0;0.05;0;0.22;0;0;0;0;0;0;0;0;0;0;0;0;0;0;0;0;0;1173;1.167;50;Y;773;1;N;;315;387;85;https://doi.org/10.1016/j.msea.2006.01.068
Cu-0.4Cr;Cu low alloyed;99.6;0;0;0;0;0;0;0;0.4;0;0;0;0;0;0;0;0;0;0;0;0;0;0;0;0;0;0;;;80;N;;;N;139;;;45;https://doi.org/10.1016/j.jallcom.2013.08.146
Cu-0.4Cr;Cu low alloyed;99.6;0;0;0;0;0;0;0;0.4;0;0;0;0;0;0;0;0;0;0;0;0;0;0;0;0;0;0;;;80;Y;623;1;N;139;;;60;https://doi.org/10.1016/j.jallcom.2013.08.146
Cu-0.4Cr;Cu low alloyed;99.6;0;0;0;0;0;0;0;0.4;0;0;0;0;0;0;0;0;0;0;0;0;0;0;0;0;0;0;;;80;Y;673;1;N;155;;;72;https://doi.org/10.1016/j.jallcom.2013.08.146
Cu-0.4Cr;Cu low alloyed;99.6;0;0;0;0;0;0;0;0.4;0;0;0;0;0;0;0;0;0;0;0;0;0;0;0;0;0;0;;;80;Y;723;1;N;148;;;87;https://doi.org/10.1016/j.jallcom.2013.08.146
Cu-0.4Cr;Cu low alloyed;99.6;0;0;0;0;0;0;0;0.4;0;0;0;0;0;0;0;0;0;0;0;0;0;0;0;0;0;0;;;80;Y;773;1;N;117;;;92;https://doi.org/10.1016/j.jallcom.2013.08.146
Cu-0.4Cr;Cu low alloyed;99.6;0;0;0;0;0;0;0;0.4;0;0;0;0;0;0;0;0;0;0;0;0;0;0;0;0;0;0;;;80;Y;823;1;N;90;;;93;https://doi.org/10.1016/j.jallcom.2013.08.146
Cu-0.4Cr;Cu low alloyed;99.6;0;0;0;0;0;0;0;0.4;0;0;0;0;0;0;0;0;0;0;0;0;0;0;0;0;0;0;;;80;Y;873;1;N;82;;;92;https://doi.org/10.1016/j.jallcom.2013.08.146
Cu-0.4Cr;Cu low alloyed;99.6;0;0;0;0;0;0;0;0.4;0;0;0;0;0;0;0;0;0;0;0;0;0;0;0;0;0;0;;;80;Y;923;1;N;77;;;90;https://doi.org/10.1016/j.jallcom.2013.08.146
Cu-0.42Cr-0.18Zr;Cu low alloyed;99.4;0;0;0;0;0;0;0;0.42;0;0;0;0;0;0;0;0;0;0;0;0;0;0;0;0;0;0.18;;;80;N;;;N;147;;;44;https://doi.org/10.1016/j.jallcom.2013.08.146
Cu-0.42Cr-0.18Zr;Cu low alloyed;99.4;0;0;0;0;0;0;0;0.42;0;0;0;0;0;0;0;0;0;0;0;0;0;0;0;0;0;0.18;;;80;Y;623;1;N;162;;;55;https://doi.org/10.1016/j.jallcom.2013.08.146
Cu-0.42Cr-0.18Zr;Cu low alloyed;99.4;0;0;0;0;0;0;0;0.42;0;0;0;0;0;0;0;0;0;0;0;0;0;0;0;0;0;0.18;;;80;Y;673;1;N;177;;;68;https://doi.org/10.1016/j.jallcom.2013.08.146
Cu-0.42Cr-0.18Zr;Cu low alloyed;99.4;0;0;0;0;0;0;0;0.42;0;0;0;0;0;0;0;0;0;0;0;0;0;0;0;0;0;0.18;;;80;Y;723;1;N;174;;;84;https://doi.org/10.1016/j.jallcom.2013.08.146
Cu-0.42Cr-0.18Zr;Cu low alloyed;99.4;0;0;0;0;0;0;0;0.42;0;0;0;0;0;0;0;0;0;0;0;0;0;0;0;0;0;0.18;;;80;Y;773;1;N;164;;;85;https://doi.org/10.1016/j.jallcom.2013.08.146
Cu-0.42Cr-0.18Zr;Cu low alloyed;99.4;0;0;0;0;0;0;0;0.42;0;0;0;0;0;0;0;0;0;0;0;0;0;0;0;0;0;0.18;;;80;Y;823;1;N;144;;;87;https://doi.org/10.1016/j.jallcom.2013.08.146
Cu-0.42Cr-0.18Zr;Cu low alloyed;99.4;0;0;0;0;0;0;0;0.42;0;0;0;0;0;0;0;0;0;0;0;0;0;0;0;0;0;0.18;;;80;Y;873;1;N;101;;;87;https://doi.org/10.1016/j.jallcom.2013.08.146
Cu-0.42Cr-0.18Zr;Cu low alloyed;99.4;0;0;0;0;0;0;0;0.42;0;0;0;0;0;0;0;0;0;0;0;0;0;0;0;0;0;0.18;;;80;Y;923;1;N;84;;;85;https://doi.org/10.1016/j.jallcom.2013.08.146
Cu-0.39Cr-0.15Zr-0.12Ni-0.03Si;Cu low alloyed;99.31;0;0;0;0;0;0;0;0.39;0;0;0;0;0;0;0;0;0.12;0;0;0;0.03;0;0;0;0;0.15;;;80;N;;;N;150;;;43;https://doi.org/10.1016/j.jallcom.2013.08.146
Cu-0.39Cr-0.15Zr-0.12Ni-0.03Si;Cu low alloyed;99.31;0;0;0;0;0;0;0;0.39;0;0;0;0;0;0;0;0;0.12;0;0;0;0.03;0;0;0;0;0.15;;;80;Y;623;1;N;162;;;56;https://doi.org/10.1016/j.jallcom.2013.08.146
Cu-0.39Cr-0.15Zr-0.12Ni-0.03Si;Cu low alloyed;99.31;0;0;0;0;0;0;0;0.39;0;0;0;0;0;0;0;0;0.12;0;0;0;0.03;0;0;0;0;0.15;;;80;Y;673;1;N;180;;;66;https://doi.org/10.1016/j.jallcom.2013.08.146
Cu-0.39Cr-0.15Zr-0.12Ni-0.03Si;Cu low alloyed;99.31;0;0;0;0;0;0;0;0.39;0;0;0;0;0;0;0;0;0.12;0;0;0;0.03;0;0;0;0;0.15;;;80;Y;723;1;N;179;;;80;https://doi.org/10.1016/j.jallcom.2013.08.146
Cu-0.39Cr-0.15Zr-0.12Ni-0.03Si;Cu low alloyed;99.31;0;0;0;0;0;0;0;0.39;0;0;0;0;0;0;0;0;0.12;0;0;0;0.03;0;0;0;0;0.15;;;80;Y;773;1;N;162;;;81;https://doi.org/10.1016/j.jallcom.2013.08.146
Cu-0.39Cr-0.15Zr-0.12Ni-0.03Si;Cu low alloyed;99.31;0;0;0;0;0;0;0;0.39;0;0;0;0;0;0;0;0;0.12;0;0;0;0.03;0;0;0;0;0.15;;;80;Y;823;1;N;149;;;82;https://doi.org/10.1016/j.jallcom.2013.08.146
Cu-0.39Cr-0.15Zr-0.12Ni-0.03Si;Cu low alloyed;99.31;0;0;0;0;0;0;0;0.39;0;0;0;0;0;0;0;0;0.12;0;0;0;0.03;0;0;0;0;0.15;;;80;Y;873;1;N;103;;;82;https://doi.org/10.1016/j.jallcom.2013.08.146
Cu-0.39Cr-0.15Zr-0.12Ni-0.03Si;Cu low alloyed;99.31;0;0;0;0;0;0;0;0.39;0;0;0;0;0;0;0;0;0.12;0;0;0;0.03;0;0;0;0;0.15;;;80;Y;923;1;N;87;;;81;https://doi.org/10.1016/j.jallcom.2013.08.146
Cu-0.4Cr;Cu low alloyed;99.6;0;0;0;0;0;0;0;0.4;0;0;0;0;0;0;0;0;0;0;0;0;0;0;0;0;0;0;;;80;Y;723;0.017;N;135;;;48;https://doi.org/10.1016/j.jallcom.2013.08.146
Cu-0.4Cr;Cu low alloyed;99.6;0;0;0;0;0;0;0;0.4;0;0;0;0;0;0;0;0;0;0;0;0;0;0;0;0;0;0;;;80;Y;723;0.0417;N;140;;;51;https://doi.org/10.1016/j.jallcom.2013.08.146
Cu-0.4Cr;Cu low alloyed;99.6;0;0;0;0;0;0;0;0.4;0;0;0;0;0;0;0;0;0;0;0;0;0;0;0;0;0;0;;;80;Y;723;0.083;N;151;;;58;https://doi.org/10.1016/j.jallcom.2013.08.146
Cu-0.4Cr;Cu low alloyed;99.6;0;0;0;0;0;0;0;0.4;0;0;0;0;0;0;0;0;0;0;0;0;0;0;0;0;0;0;;;80;Y;723;0.17;N;158;;;69;https://doi.org/10.1016/j.jallcom.2013.08.146
Cu-0.4Cr;Cu low alloyed;99.6;0;0;0;0;0;0;0;0.4;0;0;0;0;0;0;0;0;0;0;0;0;0;0;0;0;0;0;;;80;Y;723;0.25;N;159;;;76;https://doi.org/10.1016/j.jallcom.2013.08.146
Cu-0.4Cr;Cu low alloyed;99.6;0;0;0;0;0;0;0;0.4;0;0;0;0;0;0;0;0;0;0;0;0;0;0;0;0;0;0;;;80;Y;723;0.5;N;156;;;85;https://doi.org/10.1016/j.jallcom.2013.08.146
Cu-0.4Cr;Cu low alloyed;99.6;0;0;0;0;0;0;0;0.4;0;0;0;0;0;0;0;0;0;0;0;0;0;0;0;0;0;0;;;80;Y;723;1;N;147;;;87;https://doi.org/10.1016/j.jallcom.2013.08.146
Cu-0.4Cr;Cu low alloyed;99.6;0;0;0;0;0;0;0;0.4;0;0;0;0;0;0;0;0;0;0;0;0;0;0;0;0;0;0;;;80;Y;723;2;N;131;;;90;https://doi.org/10.1016/j.jallcom.2013.08.146
Cu-0.42Cr-0.18Zr;Cu low alloyed;99.4;0;0;0;0;0;0;0;0.42;0;0;0;0;0;0;0;0;0;0;0;0;0;0;0;0;0;0.18;;;80;Y;723;0.017;N;156;;;50;https://doi.org/10.1016/j.jallcom.2013.08.146
Cu-0.42Cr-0.18Zr;Cu low alloyed;99.4;0;0;0;0;0;0;0;0.42;0;0;0;0;0;0;0;0;0;0;0;0;0;0;0;0;0;0.18;;;80;Y;723;0.0417;N;160;;;54;https://doi.org/10.1016/j.jallcom.2013.08.146
Cu-0.42Cr-0.18Zr;Cu low alloyed;99.4;0;0;0;0;0;0;0;0.42;0;0;0;0;0;0;0;0;0;0;0;0;0;0;0;0;0;0.18;;;80;Y;723;0.083;N;166;;;60;https://doi.org/10.1016/j.jallcom.2013.08.146
Cu-0.42Cr-0.18Zr;Cu low alloyed;99.4;0;0;0;0;0;0;0;0.42;0;0;0;0;0;0;0;0;0;0;0;0;0;0;0;0;0;0.18;;;80;Y;723;0.17;N;173;;;71;https://doi.org/10.1016/j.jallcom.2013.08.146
Cu-0.42Cr-0.18Zr;Cu low alloyed;99.4;0;0;0;0;0;0;0;0.42;0;0;0;0;0;0;0;0;0;0;0;0;0;0;0;0;0;0.18;;;80;Y;723;0.25;N;175;;;76;https://doi.org/10.1016/j.jallcom.2013.08.146
Cu-0.42Cr-0.18Zr;Cu low alloyed;99.4;0;0;0;0;0;0;0;0.42;0;0;0;0;0;0;0;0;0;0;0;0;0;0;0;0;0;0.18;;;80;Y;723;0.5;N;176;;;82;https://doi.org/10.1016/j.jallcom.2013.08.146
Cu-0.42Cr-0.18Zr;Cu low alloyed;99.4;0;0;0;0;0;0;0;0.42;0;0;0;0;0;0;0;0;0;0;0;0;0;0;0;0;0;0.18;;;80;Y;723;1;N;174;;;84;https://doi.org/10.1016/j.jallcom.2013.08.146
Cu-0.42Cr-0.18Zr;Cu low alloyed;99.4;0;0;0;0;0;0;0;0.42;0;0;0;0;0;0;0;0;0;0;0;0;0;0;0;0;0;0.18;;;80;Y;723;2;N;170;;;85;https://doi.org/10.1016/j.jallcom.2013.08.146
Cu-0.39Cr-0.15Zr-0.12Ni-0.03Si;Cu low alloyed;99.31;0;0;0;0;0;0;0;0.39;0;0;0;0;0;0;0;0;0.12;0;0;0;0.03;0;0;0;0;0.15;;;80;Y;723;0.017;N;160;;;48;https://doi.org/10.1016/j.jallcom.2013.08.146
Cu-0.39Cr-0.15Zr-0.12Ni-0.03Si;Cu low alloyed;99.31;0;0;0;0;0;0;0;0.39;0;0;0;0;0;0;0;0;0.12;0;0;0;0.03;0;0;0;0;0.15;;;80;Y;723;0.0417;N;167;;;52;https://doi.org/10.1016/j.jallcom.2013.08.146
Cu-0.39Cr-0.15Zr-0.12Ni-0.03Si;Cu low alloyed;99.31;0;0;0;0;0;0;0;0.39;0;0;0;0;0;0;0;0;0.12;0;0;0;0.03;0;0;0;0;0.15;;;80;Y;723;0.083;N;174;;;59;https://doi.org/10.1016/j.jallcom.2013.08.146
Cu-0.39Cr-0.15Zr-0.12Ni-0.03Si;Cu low alloyed;99.31;0;0;0;0;0;0;0;0.39;0;0;0;0;0;0;0;0;0.12;0;0;0;0.03;0;0;0;0;0.15;;;80;Y;723;0.17;N;177;;;69;https://doi.org/10.1016/j.jallcom.2013.08.146
Cu-0.39Cr-0.15Zr-0.12Ni-0.03Si;Cu low alloyed;99.31;0;0;0;0;0;0;0;0.39;0;0;0;0;0;0;0;0;0.12;0;0;0;0.03;0;0;0;0;0.15;;;80;Y;723;0.25;N;178;;;73;https://doi.org/10.1016/j.jallcom.2013.08.146
Cu-0.39Cr-0.15Zr-0.12Ni-0.03Si;Cu low alloyed;99.31;0;0;0;0;0;0;0;0.39;0;0;0;0;0;0;0;0;0.12;0;0;0;0.03;0;0;0;0;0.15;;;80;Y;723;0.5;N;179;;;78;https://doi.org/10.1016/j.jallcom.2013.08.146
Cu-0.39Cr-0.15Zr-0.12Ni-0.03Si;Cu low alloyed;99.31;0;0;0;0;0;0;0;0.39;0;0;0;0;0;0;0;0;0.12;0;0;0;0.03;0;0;0;0;0.15;;;80;Y;723;1;N;179;;;79;https://doi.org/10.1016/j.jallcom.2013.08.146
Cu-0.39Cr-0.15Zr-0.12Ni-0.03Si;Cu low alloyed;99.31;0;0;0;0;0;0;0;0.39;0;0;0;0;0;0;0;0;0.12;0;0;0;0.03;0;0;0;0;0.15;;;80;Y;723;2;N;181;;;80;https://doi.org/10.1016/j.jallcom.2013.08.146
Cu-0.7Cr-0.3Fe;Cu low alloyed;99.05;0;0;0;0;0;0;0;0.68;0.27;0;0;0;0;0;0;0;0;0;0;0;0;0;0;0;0;0;1323;2;40;Y;723;6;N;;;390;73;https://doi.org/10.1023/A:1017916930459
Cu-0.7Cr-0.3Fe;Cu low alloyed;99.05;0;0;0;0;0;0;0;0.68;0.27;0;0;0;0;0;0;0;0;0;0;0;0;0;0;0;0;0;1323;2;40;Y;723;12;N;;;415;75;https://doi.org/10.1023/A:1017916930459
Cu-0.7Cr-0.3Fe;Cu low alloyed;99.05;0;0;0;0;0;0;0;0.68;0.27;0;0;0;0;0;0;0;0;0;0;0;0;0;0;0;0;0;1323;2;40;Y;723;24;N;;;392;75;https://doi.org/10.1023/A:1017916930459
Cu-0.7Cr-0.3Fe;Cu low alloyed;99.05;0;0;0;0;0;0;0;0.68;0.27;0;0;0;0;0;0;0;0;0;0;0;0;0;0;0;0;0;1323;2;90;N;;;N;;;452;24;https://doi.org/10.1023/A:1017916930459
Cu-0.7Cr-0.3Fe;Cu low alloyed;99.05;0;0;0;0;0;0;0;0.68;0.27;0;0;0;0;0;0;0;0;0;0;0;0;0;0;0;0;0;1323;2;90;Y;723;0.167;N;;;445;35;https://doi.org/10.1023/A:1017916930459
Cu-0.7Cr-0.3Fe;Cu low alloyed;99.05;0;0;0;0;0;0;0;0.68;0.27;0;0;0;0;0;0;0;0;0;0;0;0;0;0;0;0;0;1323;2;90;Y;723;0.75;N;;;522;59;https://doi.org/10.1023/A:1017916930459
Cu-0.7Cr-0.3Fe;Cu low alloyed;99.05;0;0;0;0;0;0;0;0.68;0.27;0;0;0;0;0;0;0;0;0;0;0;0;0;0;0;0;0;1323;2;90;Y;723;0.75;Y;159;;546;66;https://doi.org/10.1023/A:1017916930459
Cu-0.7Cr-0.3Fe;Cu low alloyed;99.05;0;0;0;0;0;0;0;0.68;0.27;0;0;0;0;0;0;0;0;0;0;0;0;0;0;0;0;0;1323;2;90;Y;723;1.5;N;;;537;66;https://doi.org/10.1023/A:1017916930459
Cu-0.7Cr-0.3Fe;Cu low alloyed;99.05;0;0;0;0;0;0;0;0.68;0.27;0;0;0;0;0;0;0;0;0;0;0;0;0;0;0;0;0;1323;2;90;Y;723;6;N;;;522;73;https://doi.org/10.1023/A:1017916930459
Cu-0.7Cr-0.3Fe;Cu low alloyed;99.05;0;0;0;0;0;0;0;0.68;0.27;0;0;0;0;0;0;0;0;0;0;0;0;0;0;0;0;0;1323;2;90;Y;723;24;N;;;425;82;https://doi.org/10.1023/A:1017916930459
Cu-0.7Cr-2.0Fe;Cu low alloyed;97.52;0;0;0;0;0;0;0;0.63;1.85;0;0;0;0;0;0;0;0;0;0;0;0;0;0;0;0;0;1323;2;0;Y;873;3;N;75;;268;53;https://doi.org/10.1023/A:1017916930459
Cu-0.7Cr-2.0Fe;Cu low alloyed;97.52;0;0;0;0;0;0;0;0.63;1.85;0;0;0;0;0;0;0;0;0;0;0;0;0;0;0;0;0;1323;2;40;Y;873;0.75;N;112;;316;53;https://doi.org/10.1023/A:1017916930459
Cu-0.7Cr-2.0Fe;Cu low alloyed;97.52;0;0;0;0;0;0;0;0.63;1.85;0;0;0;0;0;0;0;0;0;0;0;0;0;0;0;0;0;1323;2;40;Y;873;0.75;Y;129;;374;61;https://doi.org/10.1023/A:1017916930459
Cu-0.7Cr-2.0Fe;Cu low alloyed;97.52;0;0;0;0;0;0;0;0.63;1.85;0;0;0;0;0;0;0;0;0;0;0;0;0;0;0;0;0;1323;2;40;N;;;N;;;350;26;https://doi.org/10.1023/A:1017916930459
Cu-0.7Cr-2.0Fe;Cu low alloyed;97.52;0;0;0;0;0;0;0;0.63;1.85;0;0;0;0;0;0;0;0;0;0;0;0;0;0;0;0;0;1323;2;40;Y;873;0.167;N;;;314;46;https://doi.org/10.1023/A:1017916930459
Cu-0.7Cr-2.0Fe;Cu low alloyed;97.52;0;0;0;0;0;0;0;0.63;1.85;0;0;0;0;0;0;0;0;0;0;0;0;0;0;0;0;0;1323;2;40;Y;873;0.333;N;;;311;51;https://doi.org/10.1023/A:1017916930459
Cu-0.7Cr-2.0Fe;Cu low alloyed;97.52;0;0;0;0;0;0;0;0.63;1.85;0;0;0;0;0;0;0;0;0;0;0;0;0;0;0;0;0;1323;2;40;Y;873;3;N;;;311;54;https://doi.org/10.1023/A:1017916930459
Cu-0.7Cr-2.0Fe;Cu low alloyed;97.52;0;0;0;0;0;0;0;0.63;1.85;0;0;0;0;0;0;0;0;0;0;0;0;0;0;0;0;0;1323;2;90;N;;;N;;;475;24;https://doi.org/10.1023/A:1017916930459
Cu-0.7Cr-2.0Fe;Cu low alloyed;97.52;0;0;0;0;0;0;0;0.63;1.85;0;0;0;0;0;0;0;0;0;0;0;0;0;0;0;0;0;1323;2;90;Y;873;0.167;N;;;382;51;https://doi.org/10.1023/A:1017916930459
Cu-0.7Cr-2.0Fe;Cu low alloyed;97.52;0;0;0;0;0;0;0;0.63;1.85;0;0;0;0;0;0;0;0;0;0;0;0;0;0;0;0;0;1323;2;90;Y;873;0.333;N;;;392;53;https://doi.org/10.1023/A:1017916930459
Cu-0.7Cr-2.0Fe;Cu low alloyed;97.52;0;0;0;0;0;0;0;0.63;1.85;0;0;0;0;0;0;0;0;0;0;0;0;0;0;0;0;0;1323;2;90;Y;873;1.5;N;;;386;56;https://doi.org/10.1023/A:1017916930459
Cu-0.7Cr-2.0Fe;Cu low alloyed;97.52;0;0;0;0;0;0;0;0.63;1.85;0;0;0;0;0;0;0;0;0;0;0;0;0;0;0;0;0;1323;2;90;Y;873;12;N;;;325;57;https://doi.org/10.1023/A:1017916930459
Cu-0.7Cr-2.0Fe;Cu low alloyed;97.52;0;0;0;0;0;0;0;0.63;1.85;0;0;0;0;0;0;0;0;0;0;0;0;0;0;0;0;0;1323;2;90;Y;873;0.75;Y;144;;484;57;https://doi.org/10.1023/A:1017916930459
Cu-0.7Cr-2.0Fe;Cu low alloyed;97.52;0;0;0;0;0;0;0;0.63;1.85;0;0;0;0;0;0;0;0;0;0;0;0;0;0;0;0;0;1323;2;90;Y;873;0.75;N;118;;390;56;https://doi.org/10.1023/A:1017916930459
Cu-1Cr;Cu low alloyed;99.19;0;0;0;0;0;0;0;0.81;0;0;0;0;0;0;0;0;0;0;0;0;0;0;0;0;0;0;1323;2;40;N;;;N;;;304;33;https://doi.org/10.1023/A:1017916930459
Cu-1Cr;Cu low alloyed;99.19;0;0;0;0;0;0;0;0.81;0;0;0;0;0;0;0;0;0;0;0;0;0;0;0;0;0;0;1323;2;40;Y;723;0.333;N;;;409;65;https://doi.org/10.1023/A:1017916930459
Cu-1Cr;Cu low alloyed;99.19;0;0;0;0;0;0;0;0.81;0;0;0;0;0;0;0;0;0;0;0;0;0;0;0;0;0;0;1323;2;40;Y;723;1.5;N;;;460;79;https://doi.org/10.1023/A:1017916930459
Cu-1Cr;Cu low alloyed;99.19;0;0;0;0;0;0;0;0.81;0;0;0;0;0;0;0;0;0;0;0;0;0;0;0;0;0;0;1323;2;40;Y;723;6;N;;;460;85;https://doi.org/10.1023/A:1017916930459
Cu-1Cr;Cu low alloyed;99.19;0;0;0;0;0;0;0;0.81;0;0;0;0;0;0;0;0;0;0;0;0;0;0;0;0;0;0;1323;2;90;N;;;N;;;459;32;https://doi.org/10.1023/A:1017916930459
Cu-1Cr;Cu low alloyed;99.19;0;0;0;0;0;0;0;0.81;0;0;0;0;0;0;0;0;0;0;0;0;0;0;0;0;0;0;1323;2;90;Y;723;0.167;N;;;476;46;https://doi.org/10.1023/A:1017916930459
Cu-1Cr;Cu low alloyed;99.19;0;0;0;0;0;0;0;0.81;0;0;0;0;0;0;0;0;0;0;0;0;0;0;0;0;0;0;1323;2;90;Y;723;0.75;N;;;570;74;https://doi.org/10.1023/A:1017916930459
Cu-1Cr;Cu low alloyed;99.19;0;0;0;0;0;0;0;0.81;0;0;0;0;0;0;0;0;0;0;0;0;0;0;0;0;0;0;1323;2;90;Y;723;1.5;N;;;582;81;https://doi.org/10.1023/A:1017916930459
Cu-1Cr;Cu low alloyed;99.19;0;0;0;0;0;0;0;0.81;0;0;0;0;0;0;0;0;0;0;0;0;0;0;0;0;0;0;1323;2;90;Y;723;6;N;;;542;88;https://doi.org/10.1023/A:1017916930459
Cu-1Cr;Cu low alloyed;99.19;0;0;0;0;0;0;0;0.81;0;0;0;0;0;0;0;0;0;0;0;0;0;0;0;0;0;0;1323;2;90;Y;723;24;N;;;460;91;https://doi.org/10.1023/A:1017916930459
Cu-1Fe;Cu low alloyed;99;0;0;0;0;0;0;0;0.05;0.95;0;0;0;0;0;0;0;0;0;0;0;0;0;0;0;0;0;1323;2;40;N;;;N;;;266;25;https://doi.org/10.1023/A:1017916930459
Cu-1Fe;Cu low alloyed;99;0;0;0;0;0;0;0;0.05;0.95;0;0;0;0;0;0;0;0;0;0;0;0;0;0;0;0;0;1323;2;40;Y;923;0.167;N;;;245;44;https://doi.org/10.1023/A:1017916930459
Cu-1Fe;Cu low alloyed;99;0;0;0;0;0;0;0;0.05;0.95;0;0;0;0;0;0;0;0;0;0;0;0;0;0;0;0;0;1323;2;40;Y;923;1.5;N;;;256;46;https://doi.org/10.1023/A:1017916930459
Cu-1Fe;Cu low alloyed;99;0;0;0;0;0;0;0;0.05;0.95;0;0;0;0;0;0;0;0;0;0;0;0;0;0;0;0;0;1323;2;40;Y;923;6;N;;;255;48;https://doi.org/10.1023/A:1017916930459
Cu-1Fe;Cu low alloyed;99;0;0;0;0;0;0;0;0.05;0.95;0;0;0;0;0;0;0;0;0;0;0;0;0;0;0;0;0;1323;2;40;N;;;N;;;252;20;https://doi.org/10.1023/A:1017916930459
Cu-1Fe;Cu low alloyed;99;0;0;0;0;0;0;0;0.05;0.95;0;0;0;0;0;0;0;0;0;0;0;0;0;0;0;0;0;1323;2;40;Y;923;0.167;N;;;78;44;https://doi.org/10.1023/A:1017916930459
Cu-1Fe;Cu low alloyed;99;0;0;0;0;0;0;0;0.05;0.95;0;0;0;0;0;0;0;0;0;0;0;0;0;0;0;0;0;1323;2;40;Y;923;0.75;N;;;85;45;https://doi.org/10.1023/A:1017916930459
Cu-1Fe;Cu low alloyed;99;0;0;0;0;0;0;0;0.05;0.95;0;0;0;0;0;0;0;0;0;0;0;0;0;0;0;0;0;1323;2;40;Y;923;1.5;N;;;94;46;https://doi.org/10.1023/A:1017916930459
Cu-0.28Cr-0.19Mg;Cu low alloyed;99.53;0;0;0;0;0;0;0;0.28;0;0;0;0.19;0;0;0;0;0;0;0;0;0;0;0;0;0;0;1223;4;0;N;;;N;65;;;47;https://doi.org/10.1016/j.msea.2006.07.121
Cu-0.28Cr-0.19Mg;Cu low alloyed;99.53;0;0;0;0;0;0;0;0.28;0;0;0;0.19;0;0;0;0;0;0;0;0;0;0;0;0;0;0;1223;4;0;Y;663;0.0083;N;66;;;48;https://doi.org/10.1016/j.msea.2006.07.121
Cu-0.28Cr-0.19Mg;Cu low alloyed;99.53;0;0;0;0;0;0;0;0.28;0;0;0;0.19;0;0;0;0;0;0;0;0;0;0;0;0;0;0;1223;4;0;Y;663;0.0167;N;65;;;48;https://doi.org/10.1016/j.msea.2006.07.121
Cu-0.28Cr-0.19Mg;Cu low alloyed;99.53;0;0;0;0;0;0;0;0.28;0;0;0;0.19;0;0;0;0;0;0;0;0;0;0;0;0;0;0;1223;4;0;Y;663;0.0417;N;66;;;48;https://doi.org/10.1016/j.msea.2006.07.121
Cu-0.28Cr-0.19Mg;Cu low alloyed;99.53;0;0;0;0;0;0;0;0.28;0;0;0;0.19;0;0;0;0;0;0;0;0;0;0;0;0;0;0;1223;4;0;Y;663;0.0833;N;65;;;48;https://doi.org/10.1016/j.msea.2006.07.121
Cu-0.28Cr-0.19Mg;Cu low alloyed;99.53;0;0;0;0;0;0;0;0.28;0;0;0;0.19;0;0;0;0;0;0;0;0;0;0;0;0;0;0;1223;4;0;Y;663;0.167;N;64;;;48;https://doi.org/10.1016/j.msea.2006.07.121
Cu-0.28Cr-0.19Mg;Cu low alloyed;99.53;0;0;0;0;0;0;0;0.28;0;0;0;0.19;0;0;0;0;0;0;0;0;0;0;0;0;0;0;1223;4;0;Y;663;0.25;N;67;;;48;https://doi.org/10.1016/j.msea.2006.07.121
Cu-0.28Cr-0.19Mg;Cu low alloyed;99.53;0;0;0;0;0;0;0;0.28;0;0;0;0.19;0;0;0;0;0;0;0;0;0;0;0;0;0;0;1223;4;0;Y;663;0.5;N;67;;;50;https://doi.org/10.1016/j.msea.2006.07.121
Cu-0.28Cr-0.19Mg;Cu low alloyed;99.53;0;0;0;0;0;0;0;0.28;0;0;0;0.19;0;0;0;0;0;0;0;0;0;0;0;0;0;0;1223;4;0;Y;663;1;N;77;;;55;https://doi.org/10.1016/j.msea.2006.07.121
Cu-0.28Cr-0.19Mg;Cu low alloyed;99.53;0;0;0;0;0;0;0;0.28;0;0;0;0.19;0;0;0;0;0;0;0;0;0;0;0;0;0;0;1223;4;0;Y;663;2;N;98;;;65;https://doi.org/10.1016/j.msea.2006.07.121
Cu-0.28Cr-0.19Mg;Cu low alloyed;99.53;0;0;0;0;0;0;0;0.28;0;0;0;0.19;0;0;0;0;0;0;0;0;0;0;0;0;0;0;1223;4;0;Y;663;4;N;109;;;71;https://doi.org/10.1016/j.msea.2006.07.121
Cu-0.28Cr-0.19Mg;Cu low alloyed;99.53;0;0;0;0;0;0;0;0.28;0;0;0;0.19;0;0;0;0;0;0;0;0;0;0;0;0;0;0;1223;4;0;Y;663;6;N;109;;;76;https://doi.org/10.1016/j.msea.2006.07.121
Cu-0.28Cr-0.19Mg;Cu low alloyed;99.53;0;0;0;0;0;0;0;0.28;0;0;0;0.19;0;0;0;0;0;0;0;0;0;0;0;0;0;0;1223;4;0;Y;663;8;N;117;;;76;https://doi.org/10.1016/j.msea.2006.07.121
Cu-0.28Cr-0.19Mg;Cu low alloyed;99.53;0;0;0;0;0;0;0;0.28;0;0;0;0.19;0;0;0;0;0;0;0;0;0;0;0;0;0;0;1223;4;0;Y;663;12;N;116;;;77;https://doi.org/10.1016/j.msea.2006.07.121
Cu-0.28Cr-0.19Mg;Cu low alloyed;99.53;0;0;0;0;0;0;0;0.28;0;0;0;0.19;0;0;0;0;0;0;0;0;0;0;0;0;0;0;1223;4;0;Y;693;0.0083;N;67;;;47;https://doi.org/10.1016/j.msea.2006.07.121
Cu-0.28Cr-0.19Mg;Cu low alloyed;99.53;0;0;0;0;0;0;0;0.28;0;0;0;0.19;0;0;0;0;0;0;0;0;0;0;0;0;0;0;1223;4;0;Y;693;0.0167;N;68;;;47;https://doi.org/10.1016/j.msea.2006.07.121
Cu-0.28Cr-0.19Mg;Cu low alloyed;99.53;0;0;0;0;0;0;0;0.28;0;0;0;0.19;0;0;0;0;0;0;0;0;0;0;0;0;0;0;1223;4;0;Y;693;0.0417;N;66;;;48;https://doi.org/10.1016/j.msea.2006.07.121
Cu-0.28Cr-0.19Mg;Cu low alloyed;99.53;0;0;0;0;0;0;0;0.28;0;0;0;0.19;0;0;0;0;0;0;0;0;0;0;0;0;0;0;1223;4;0;Y;693;0.0833;N;66;;;47;https://doi.org/10.1016/j.msea.2006.07.121
Cu-0.28Cr-0.19Mg;Cu low alloyed;99.53;0;0;0;0;0;0;0;0.28;0;0;0;0.19;0;0;0;0;0;0;0;0;0;0;0;0;0;0;1223;4;0;Y;693;0.167;N;67;;;48;https://doi.org/10.1016/j.msea.2006.07.121
Cu-0.28Cr-0.19Mg;Cu low alloyed;99.53;0;0;0;0;0;0;0;0.28;0;0;0;0.19;0;0;0;0;0;0;0;0;0;0;0;0;0;0;1223;4;0;Y;693;0.25;N;69;;;49;https://doi.org/10.1016/j.msea.2006.07.121
Cu-0.28Cr-0.19Mg;Cu low alloyed;99.53;0;0;0;0;0;0;0;0.28;0;0;0;0.19;0;0;0;0;0;0;0;0;0;0;0;0;0;0;1223;4;0;Y;693;0.5;N;81;;;53;https://doi.org/10.1016/j.msea.2006.07.121
Cu-0.28Cr-0.19Mg;Cu low alloyed;99.53;0;0;0;0;0;0;0;0.28;0;0;0;0.19;0;0;0;0;0;0;0;0;0;0;0;0;0;0;1223;4;0;Y;693;1;N;108;;;66;https://doi.org/10.1016/j.msea.2006.07.121
Cu-0.28Cr-0.19Mg;Cu low alloyed;99.53;0;0;0;0;0;0;0;0.28;0;0;0;0.19;0;0;0;0;0;0;0;0;0;0;0;0;0;0;1223;4;0;Y;693;2;N;119;;;76;https://doi.org/10.1016/j.msea.2006.07.121
Cu-0.28Cr-0.19Mg;Cu low alloyed;99.53;0;0;0;0;0;0;0;0.28;0;0;0;0.19;0;0;0;0;0;0;0;0;0;0;0;0;0;0;1223;4;0;Y;693;4;N;124;;;79;https://doi.org/10.1016/j.msea.2006.07.121
Cu-0.28Cr-0.19Mg;Cu low alloyed;99.53;0;0;0;0;0;0;0;0.28;0;0;0;0.19;0;0;0;0;0;0;0;0;0;0;0;0;0;0;1223;4;0;Y;693;6;N;124;;;79;https://doi.org/10.1016/j.msea.2006.07.121
Cu-0.28Cr-0.19Mg;Cu low alloyed;99.53;0;0;0;0;0;0;0;0.28;0;0;0;0.19;0;0;0;0;0;0;0;0;0;0;0;0;0;0;1223;4;0;Y;693;8;N;127;;;80;https://doi.org/10.1016/j.msea.2006.07.121
Cu-0.28Cr-0.19Mg;Cu low alloyed;99.53;0;0;0;0;0;0;0;0.28;0;0;0;0.19;0;0;0;0;0;0;0;0;0;0;0;0;0;0;1223;4;0;Y;693;12;N;126;;;82;https://doi.org/10.1016/j.msea.2006.07.121
Cu-0.28Cr-0.19Mg;Cu low alloyed;99.53;0;0;0;0;0;0;0;0.28;0;0;0;0.19;0;0;0;0;0;0;0;0;0;0;0;0;0;0;1223;4;0;Y;723;0.0083;N;65;;;47;https://doi.org/10.1016/j.msea.2006.07.121
Cu-0.28Cr-0.19Mg;Cu low alloyed;99.53;0;0;0;0;0;0;0;0.28;0;0;0;0.19;0;0;0;0;0;0;0;0;0;0;0;0;0;0;1223;4;0;Y;723;0.0167;N;65;;;47;https://doi.org/10.1016/j.msea.2006.07.121
Cu-0.28Cr-0.19Mg;Cu low alloyed;99.53;0;0;0;0;0;0;0;0.28;0;0;0;0.19;0;0;0;0;0;0;0;0;0;0;0;0;0;0;1223;4;0;Y;723;0.0417;N;65;;;47;https://doi.org/10.1016/j.msea.2006.07.121
Cu-0.28Cr-0.19Mg;Cu low alloyed;99.53;0;0;0;0;0;0;0;0.28;0;0;0;0.19;0;0;0;0;0;0;0;0;0;0;0;0;0;0;1223;4;0;Y;723;0.0833;N;68;;;48;https://doi.org/10.1016/j.msea.2006.07.121
Cu-0.28Cr-0.19Mg;Cu low alloyed;99.53;0;0;0;0;0;0;0;0.28;0;0;0;0.19;0;0;0;0;0;0;0;0;0;0;0;0;0;0;1223;4;0;Y;723;0.167;N;80;;;50;https://doi.org/10.1016/j.msea.2006.07.121
Cu-0.28Cr-0.19Mg;Cu low alloyed;99.53;0;0;0;0;0;0;0;0.28;0;0;0;0.19;0;0;0;0;0;0;0;0;0;0;0;0;0;0;1223;4;0;Y;723;0.25;N;94;;;54;https://doi.org/10.1016/j.msea.2006.07.121
Cu-0.28Cr-0.19Mg;Cu low alloyed;99.53;0;0;0;0;0;0;0;0.28;0;0;0;0.19;0;0;0;0;0;0;0;0;0;0;0;0;0;0;1223;4;0;Y;723;0.5;N;118;;;71;https://doi.org/10.1016/j.msea.2006.07.121
Cu-0.28Cr-0.19Mg;Cu low alloyed;99.53;0;0;0;0;0;0;0;0.28;0;0;0;0.19;0;0;0;0;0;0;0;0;0;0;0;0;0;0;1223;4;0;Y;723;1;N;122;;;80;https://doi.org/10.1016/j.msea.2006.07.121
Cu-0.28Cr-0.19Mg;Cu low alloyed;99.53;0;0;0;0;0;0;0;0.28;0;0;0;0.19;0;0;0;0;0;0;0;0;0;0;0;0;0;0;1223;4;0;Y;723;2;N;121;;;80;https://doi.org/10.1016/j.msea.2006.07.121
Cu-0.28Cr-0.19Mg;Cu low alloyed;99.53;0;0;0;0;0;0;0;0.28;0;0;0;0.19;0;0;0;0;0;0;0;0;0;0;0;0;0;0;1223;4;0;Y;723;4;N;122;;;83;https://doi.org/10.1016/j.msea.2006.07.121
Cu-0.28Cr-0.19Mg;Cu low alloyed;99.53;0;0;0;0;0;0;0;0.28;0;0;0;0.19;0;0;0;0;0;0;0;0;0;0;0;0;0;0;1223;4;0;Y;723;6;N;122;;;84;https://doi.org/10.1016/j.msea.2006.07.121
Cu-0.28Cr-0.19Mg;Cu low alloyed;99.53;0;0;0;0;0;0;0;0.28;0;0;0;0.19;0;0;0;0;0;0;0;0;0;0;0;0;0;0;1223;4;0;Y;723;8;N;123;;;83;https://doi.org/10.1016/j.msea.2006.07.121
Cu-0.28Cr-0.19Mg;Cu low alloyed;99.53;0;0;0;0;0;0;0;0.28;0;0;0;0.19;0;0;0;0;0;0;0;0;0;0;0;0;0;0;1223;4;0;Y;723;12;N;122;;;83;https://doi.org/10.1016/j.msea.2006.07.121
[...]
Cu-3.2Ti;Cu-Ti alloys;96.8;0;0;0;0;0;0;0;0;0;0;0;0;0;0;0;0;0;0;0;0;0;0;3.2;0;0;0;1223;0.25;60;Y;653;12;N;;;958;15;https://doi.org/10.2320/matertrans.M2011173
Cu-3.2Ti;Cu-Ti alloys;96.8;0;0;0;0;0;0;0;0;0;0;0;0;0;0;0;0;0;0;0;0;0;0;3.2;0;0;0;1223;0.25;60;Y;653;24;N;;;939;21;https://doi.org/10.2320/matertrans.M2011173
Cu-3.2Ti;Cu-Ti alloys;96.8;0;0;0;0;0;0;0;0;0;0;0;0;0;0;0;0;0;0;0;0;0;0;3.2;0;0;0;1223;0.25;60;Y;653;48;N;;;889;29;https://doi.org/10.2320/matertrans.M2011173
Cu-3.2Ti;Cu-Ti alloys;96.8;0;0;0;0;0;0;0;0;0;0;0;0;0;0;0;0;0;0;0;0;0;0;3.2;0;0;0;1223;0.25;60;Y;653;72;N;;;872;33;https://doi.org/10.2320/matertrans.M2011173
Cu-3.2Ti;Cu-Ti alloys;96.8;0;0;0;0;0;0;0;0;0;0;0;0;0;0;0;0;0;0;0;0;0;0;3.2;0;0;0;1223;0.25;60;Y;653;144;N;;;813;41;https://doi.org/10.2320/matertrans.M2011173
Cu-2.7Ti-0.15Mg-0.1Ce-0.1Zr;Cu-Ti alloys;96.95;0;0;0;0;0;0;0.1;0;0;0;0;0.15;0;0;0;0;0;0;0;0;0;0;2.7;0;0;0.1;1123;2;0;N;;;N;110;;;8;https://doi.org/10.1016/j.msea.2015.10.062
Cu-2.7Ti-0.15Mg-0.1Ce-0.1Zr;Cu-Ti alloys;96.95;0;0;0;0;0;0;0.1;0;0;0;0;0.15;0;0;0;0;0;0;0;0;0;0;2.7;0;0;0.1;1123;2;0;Y;673;2;N;209;;;11;https://doi.org/10.1016/j.msea.2015.10.062
Cu-2.7Ti-0.15Mg-0.1Ce-0.1Zr;Cu-Ti alloys;96.95;0;0;0;0;0;0;0.1;0;0;0;0;0.15;0;0;0;0;0;0;0;0;0;0;2.7;0;0;0.1;1123;2;0;Y;673;4;N;216;;;12;https://doi.org/10.1016/j.msea.2015.10.062
Cu-2.7Ti-0.15Mg-0.1Ce-0.1Zr;Cu-Ti alloys;96.95;0;0;0;0;0;0;0.1;0;0;0;0;0.15;0;0;0;0;0;0;0;0;0;0;2.7;0;0;0.1;1123;2;0;Y;673;8;N;225;;;14;https://doi.org/10.1016/j.msea.2015.10.062
Cu-2.7Ti-0.15Mg-0.1Ce-0.1Zr;Cu-Ti alloys;96.95;0;0;0;0;0;0;0.1;0;0;0;0;0.15;0;0;0;0;0;0;0;0;0;0;2.7;0;0;0.1;1123;2;0;Y;673;16;N;232;;;15;https://doi.org/10.1016/j.msea.2015.10.062
Cu-2.7Ti-0.15Mg-0.1Ce-0.1Zr;Cu-Ti alloys;96.95;0;0;0;0;0;0;0.1;0;0;0;0;0.15;0;0;0;0;0;0;0;0;0;0;2.7;0;0;0.1;1123;2;0;Y;673;24;N;233;;;16;https://doi.org/10.1016/j.msea.2015.10.062
Cu-2.7Ti-0.15Mg-0.1Ce-0.1Zr;Cu-Ti alloys;96.95;0;0;0;0;0;0;0.1;0;0;0;0;0.15;0;0;0;0;0;0;0;0;0;0;2.7;0;0;0.1;1123;2;90;N;;;N;237;;;4;https://doi.org/10.1016/j.msea.2015.10.062
Cu-2.7Ti-0.15Mg-0.1Ce-0.1Zr;Cu-Ti alloys;96.95;0;0;0;0;0;0;0.1;0;0;0;0;0.15;0;0;0;0;0;0;0;0;0;0;2.7;0;0;0.1;1123;2;90;Y;673;2;N;322;;;13;https://doi.org/10.1016/j.msea.2015.10.062
Cu-2.7Ti-0.15Mg-0.1Ce-0.1Zr;Cu-Ti alloys;96.95;0;0;0;0;0;0;0.1;0;0;0;0;0.15;0;0;0;0;0;0;0;0;0;0;2.7;0;0;0.1;1123;2;90;Y;673;4;N;322;909;971;15;https://doi.org/10.1016/j.msea.2015.10.062
Cu-2.7Ti-0.15Mg-0.1Ce-0.1Zr;Cu-Ti alloys;96.95;0;0;0;0;0;0;0.1;0;0;0;0;0.15;0;0;0;0;0;0;0;0;0;0;2.7;0;0;0.1;1123;2;90;Y;673;8;N;308;;;18;https://doi.org/10.1016/j.msea.2015.10.062
Cu-2.7Ti-0.15Mg-0.1Ce-0.1Zr;Cu-Ti alloys;96.95;0;0;0;0;0;0;0.1;0;0;0;0;0.15;0;0;0;0;0;0;0;0;0;0;2.7;0;0;0.1;1123;2;90;Y;673;16;N;297;;;21;https://doi.org/10.1016/j.msea.2015.10.062
Cu-2.7Ti-0.15Mg-0.1Ce-0.1Zr;Cu-Ti alloys;96.95;0;0;0;0;0;0;0.1;0;0;0;0;0.15;0;0;0;0;0;0;0;0;0;0;2.7;0;0;0.1;1123;2;90;Y;673;24;N;291;;;24;https://doi.org/10.1016/j.msea.2015.10.062
Cu-2.7Ti-0.15Mg-0.1Ce-0.1Zr;Cu-Ti alloys;96.95;0;0;0;0;0;0;0.1;0;0;0;0;0.15;0;0;0;0;0;0;0;0;0;0;2.7;0;0;0.1;1123;2;90;Y;673;12;N;299;833;892;20;https://doi.org/10.1016/j.msea.2015.10.062
Cu-2.7Ti-0.15Mg-0.1Ce-0.1Zr;Cu-Ti alloys;96.95;0;0;0;0;0;0;0.1;0;0;0;0;0.15;0;0;0;0;0;0;0;0;0;0;2.7;0;0;0.1;1123;2;50;N;;;Y;316;;;15;https://doi.org/10.1016/j.msea.2015.10.062
Cu-2.7Ti-0.15Mg-0.1Ce-0.1Zr;Cu-Ti alloys;96.95;0;0;0;0;0;0;0.1;0;0;0;0;0.15;0;0;0;0;0;0;0;0;0;0;2.7;0;0;0.1;1123;2;50;Y;673;2;Y;336;;;19;https://doi.org/10.1016/j.msea.2015.10.062
Cu-2.7Ti-0.15Mg-0.1Ce-0.1Zr;Cu-Ti alloys;96.95;0;0;0;0;0;0;0.1;0;0;0;0;0.15;0;0;0;0;0;0;0;0;0;0;2.7;0;0;0.1;1123;2;50;Y;673;4;Y;335;;;20;https://doi.org/10.1016/j.msea.2015.10.062
Cu-2.7Ti-0.15Mg-0.1Ce-0.1Zr;Cu-Ti alloys;96.95;0;0;0;0;0;0;0.1;0;0;0;0;0.15;0;0;0;0;0;0;0;0;0;0;2.7;0;0;0.1;1123;2;50;Y;673;8;Y;328;;;21;https://doi.org/10.1016/j.msea.2015.10.062
Cu-2.7Ti-0.15Mg-0.1Ce-0.1Zr;Cu-Ti alloys;96.95;0;0;0;0;0;0;0.1;0;0;0;0;0.15;0;0;0;0;0;0;0;0;0;0;2.7;0;0;0.1;1123;2;50;Y;673;16;Y;302;;;21;https://doi.org/10.1016/j.msea.2015.10.062
Cu-2.7Ti-0.15Mg-0.1Ce-0.1Zr;Cu-Ti alloys;96.95;0;0;0;0;0;0;0.1;0;0;0;0;0.15;0;0;0;0;0;0;0;0;0;0;2.7;0;0;0.1;1123;2;70;N;;;Y;320;;;14;https://doi.org/10.1016/j.msea.2015.10.062
Cu-2.7Ti-0.15Mg-0.1Ce-0.1Zr;Cu-Ti alloys;96.95;0;0;0;0;0;0;0.1;0;0;0;0;0.15;0;0;0;0;0;0;0;0;0;0;2.7;0;0;0.1;1123;2;70;Y;673;2;Y;343;;;19;https://doi.org/10.1016/j.msea.2015.10.062
Cu-2.7Ti-0.15Mg-0.1Ce-0.1Zr;Cu-Ti alloys;96.95;0;0;0;0;0;0;0.1;0;0;0;0;0.15;0;0;0;0;0;0;0;0;0;0;2.7;0;0;0.1;1123;2;70;Y;673;4;Y;343;;;20;https://doi.org/10.1016/j.msea.2015.10.062
Cu-2.7Ti-0.15Mg-0.1Ce-0.1Zr;Cu-Ti alloys;96.95;0;0;0;0;0;0;0.1;0;0;0;0;0.15;0;0;0;0;0;0;0;0;0;0;2.7;0;0;0.1;1123;2;70;Y;673;8;Y;335;;;20;https://doi.org/10.1016/j.msea.2015.10.062
Cu-2.7Ti-0.15Mg-0.1Ce-0.1Zr;Cu-Ti alloys;96.95;0;0;0;0;0;0;0.1;0;0;0;0;0.15;0;0;0;0;0;0;0;0;0;0;2.7;0;0;0.1;1123;2;70;Y;673;16;Y;307;;;21;https://doi.org/10.1016/j.msea.2015.10.062
Cu-2.7Ti-0.15Mg-0.1Ce-0.1Zr;Cu-Ti alloys;96.95;0;0;0;0;0;0;0.1;0;0;0;0;0.15;0;0;0;0;0;0;0;0;0;0;2.7;0;0;0.1;1123;2;90;N;;;Y;316;;;11;https://doi.org/10.1016/j.msea.2015.10.062
Cu-2.7Ti-0.15Mg-0.1Ce-0.1Zr;Cu-Ti alloys;96.95;0;0;0;0;0;0;0.1;0;0;0;0;0.15;0;0;0;0;0;0;0;0;0;0;2.7;0;0;0.1;1123;2;90;Y;673;2;Y;336;;;18;https://doi.org/10.1016/j.msea.2015.10.062
Cu-2.7Ti-0.15Mg-0.1Ce-0.1Zr;Cu-Ti alloys;96.95;0;0;0;0;0;0;0.1;0;0;0;0;0.15;0;0;0;0;0;0;0;0;0;0;2.7;0;0;0.1;1123;2;90;Y;673;4;Y;340;982;1035;20;https://doi.org/10.1016/j.msea.2015.10.062
Cu-2.7Ti-0.15Mg-0.1Ce-0.1Zr;Cu-Ti alloys;96.95;0;0;0;0;0;0;0.1;0;0;0;0;0.15;0;0;0;0;0;0;0;0;0;0;2.7;0;0;0.1;1123;2;90;Y;673;8;Y;323;892;944;22;https://doi.org/10.1016/j.msea.2015.10.062
Cu-2.7Ti-0.15Mg-0.1Ce-0.1Zr;Cu-Ti alloys;96.95;0;0;0;0;0;0;0.1;0;0;0;0;0.15;0;0;0;0;0;0;0;0;0;0;2.7;0;0;0.1;1123;2;90;Y;673;16;Y;303;;;25;https://doi.org/10.1016/j.msea.2015.10.062
Cu-2.7Ti-0.15Mg-0.1Ce-0.1Zr;Cu-Ti alloys;96.95;0;0;0;0;0;0;0.1;0;0;0;0;0.15;0;0;0;0;0;0;0;0;0;0;2.7;0;0;0.1;1123;2;90;Y;673;4;Y;337;961;1013;20;https://doi.org/10.1016/j.msea.2015.10.062
Cu-2.7Ti-0.15Mg-0.1Ce-0.1Zr;Cu-Ti alloys;96.95;0;0;0;0;0;0;0.1;0;0;0;0;0.15;0;0;0;0;0;0;0;0;0;0;2.7;0;0;0.1;1123;2;0;Y;723;2;N;227;;;14;https://doi.org/10.1016/j.msea.2015.10.062
Cu-2.7Ti-0.15Mg-0.1Ce-0.1Zr;Cu-Ti alloys;96.95;0;0;0;0;0;0;0.1;0;0;0;0;0.15;0;0;0;0;0;0;0;0;0;0;2.7;0;0;0.1;1123;2;0;Y;723;4;N;238;;;15;https://doi.org/10.1016/j.msea.2015.10.062
Cu-2.7Ti-0.15Mg-0.1Ce-0.1Zr;Cu-Ti alloys;96.95;0;0;0;0;0;0;0.1;0;0;0;0;0.15;0;0;0;0;0;0;0;0;0;0;2.7;0;0;0.1;1123;2;0;Y;723;8;N;242;;;15;https://doi.org/10.1016/j.msea.2015.10.062
Cu-2.7Ti-0.15Mg-0.1Ce-0.1Zr;Cu-Ti alloys;96.95;0;0;0;0;0;0;0.1;0;0;0;0;0.15;0;0;0;0;0;0;0;0;0;0;2.7;0;0;0.1;1123;2;90;Y;723;16;N;355;950;1000;12;https://doi.org/10.1016/j.msea.2015.10.062
Cu-5.4Ti;Cu-Ti alloys;94.6;0;0;0;0;0;0;0;0;0;0;0;0;0;0;0;0;0;0;0;0;0;0;5.4;0;0;0;1173;2;0;N;;;N;310;590;780;9;https://doi.org/10.1023/A:1004603906359
Cu-5.4Ti;Cu-Ti alloys;94.6;0;0;0;0;0;0;0;0;0;0;0;0;0;0;0;0;0;0;0;0;0;0;5.4;0;0;0;1173;2;0;Y;723;16;N;366;790;930;11;https://doi.org/10.1023/A:1004603906359
Cu-5.4Ti;Cu-Ti alloys;94.6;0;0;0;0;0;0;0;0;0;0;0;0;0;0;0;0;0;0;0;0;0;0;5.4;0;0;0;1173;2;90;Y;673;1;N;455;1400;1450;5;https://doi.org/10.1023/A:1004603906359
Cu-2.7Ti;Cu-Ti alloys;97.3;0;0;0;0;0;0;0;0;0;0;0;0;0;0;0;0;0;0;0;0;0;0;2.7;0;0;0;1173;2;0;N;;;N;120;192;430;10;https://doi.org/10.1023/A:1004603906359
Cu-2.7Ti;Cu-Ti alloys;97.3;0;0;0;0;0;0;0;0;0;0;0;0;0;0;0;0;0;0;0;0;0;0;2.7;0;0;0;1173;2;0;Y;723;16;N;275;460;680;17;https://doi.org/10.1023/A:1004603906359
Cu-2.7Ti;Cu-Ti alloys;97.3;0;0;0;0;0;0;0;0;0;0;0;0;0;0;0;0;0;0;0;0;0;0;2.7;0;0;0;1173;2;90;Y;673;1;N;355;950;1000;12;https://doi.org/10.1023/A:1004603906359
Cu-4.5Ti;Cu-Ti alloys;95.5;0;0;0;0;0;0;0;0;0;0;0;0;0;0;0;0;0;0;0;0;0;0;4.5;0;0;0;1173;2;0;N;;;N;245;440;680;8;https://doi.org/10.1023/A:1004603906359
Cu-4.5Ti;Cu-Ti alloys;95.5;0;0;0;0;0;0;0;0;0;0;0;0;0;0;0;0;0;0;0;0;0;0;4.5;0;0;0;1173;2;0;Y;723;16;N;340;700;890;11;https://doi.org/10.1023/A:1004603906359
Cu-4.5Ti;Cu-Ti alloys;95.5;0;0;0;0;0;0;0;0;0;0;0;0;0;0;0;0;0;0;0;0;0;0;4.5;0;0;0;1173;2;90;Y;673;1;N;425;1280;1380;8;https://doi.org/10.1023/A:1004603906359
Cu-4.3Ti;Cu-Ti alloys;95.7;0;0;0;0;0;0;0;0;0;0;0;0;0;0;0;0;0;0;0;0;0;0;4.3;0;0;0;1173;2;0;N;;;N;130;;480;3;https://doi.org/10.1023/A:1004603906359
Cu-4.3Ti;Cu-Ti alloys;95.7;0;0;0;0;0;0;0;0;0;0;0;0;0;0;0;0;0;0;0;0;0;0;4.3;0;0;0;1173;2;0;Y;723;3;N;280;;893;18;https://doi.org/10.1023/A:1004603906359
Cu-4.3Ti;Cu-Ti alloys;95.7;0;0;0;0;0;0;0;0;0;0;0;0;0;0;0;0;0;0;0;0;0;0;4.3;0;0;0;1173;2;85;Y;673;2;N;390;;1442;10;https://doi.org/10.1023/A:1004603906359
Cu-1.5Ti;Cu-Ti alloys;98.5;0;0;0;0;0;0;0;0;0;0;0;0;0;0;0;0;0;0;0;0;0;0;1.5;0;0;0;1173;2;0;N;;;N;75;112;292;16;https://doi.org/10.1023/A:1004603906359
Cu-1.5Ti;Cu-Ti alloys;98.5;0;0;0;0;0;0;0;0;0;0;0;0;0;0;0;0;0;0;0;0;0;0;1.5;0;0;0;1173;2;0;Y;723;16;N;210;348;520;25;https://doi.org/10.1023/A:1004603906359
Cu-1.5Ti;Cu-Ti alloys;98.5;0;0;0;0;0;0;0;0;0;0;0;0;0;0;0;0;0;0;0;0;0;0;1.5;0;0;0;1173;2;90;Y;673;6;N;280;670;760;22;https://doi.org/10.1023/A:1004603906359
Cu-6.18Ti-0.34Cr-0.16Mg-0.13Al;Cu-Ti alloys;93.19;0.13;0;0;0;0;0;0;0.34;0;0;0;0.16;0;0;0;0;0;0;0;0;0;0;6.18;0;0;0;1123;24;0;Y;723;4;N;338;;;8;https://doi.org/10.1016/j.msea.2021.141581
Cu-6.18Ti-0.34Cr-0.16Mg-0.13Al;Cu-Ti alloys;93.19;0.13;0;0;0;0;0;0;0.34;0;0;0;0.16;0;0;0;0;0;0;0;0;0;0;6.18;0;0;0;1123;24;60;Y;723;4;N;336;;;13;https://doi.org/10.1016/j.msea.2021.141581
Cu-6.17Ti-0.34Cr-0.16Mg-0.27Fe;Cu-Ti alloys;93.06;0;0;0;0;0;0;0;0.34;0.27;0;0;0.16;0;0;0;0;0;0;0;0;0;0;6.17;0;0;0;1123;24;0;Y;723;4;N;321;;;8;https://doi.org/10.1016/j.msea.2021.141581
Cu-6.17Ti-0.34Cr-0.16Mg-0.27Fe;Cu-Ti alloys;93.06;0;0;0;0;0;0;0;0.34;0.27;0;0;0.16;0;0;0;0;0;0;0;0;0;0;6.17;0;0;0;1123;24;60;Y;723;4;N;346;;;11;https://doi.org/10.1016/j.msea.2021.141581
Cu-6.16Ti-0.33Cr-0.16Mg-0.44Fe;Cu-Ti alloys;92.91;0;0;0;0;0;0;0;0.33;0;0;0;0.16;0;0;0;0;0;0;0;0;0;0;6.16;0;0;0.44;1123;24;0;Y;723;4;N;324;;;7;https://doi.org/10.1016/j.msea.2021.141581
Cu-6.16Ti-0.33Cr-0.16Mg-0.44Fe;Cu-Ti alloys;92.91;0;0;0;0;0;0;0;0.33;0;0;0;0.16;0;0;0;0;0;0;0;0;0;0;6.16;0;0;0.44;1123;24;60;Y;723;4;N;378;;;9;https://doi.org/10.1016/j.msea.2021.141581
Cu-6.17Ti-0.33Cr-0.16Mg;Cu-Ti alloys;93.34;0;0;0;0;0;0;0;0.33;0;0;0;0.16;0;0;0;0;0;0;0;0;0;0;6.17;0;0;0;1123;24;0;Y;723;4;N;341;;;8;https://doi.org/10.1016/j.msea.2021.141581
Cu-6.17Ti-0.33Cr-0.16Mg;Cu-Ti alloys;93.34;0;0;0;0;0;0;0;0.33;0;0;0;0.16;0;0;0;0;0;0;0;0;0;0;6.17;0;0;0;1123;24;60;Y;723;4;N;326;;;16;https://doi.org/10.1016/j.msea.2021.141581
Cu-3Ti-2Mg;Cu-Ti alloys;95;0;0;0;0;0;0;0;0;0;0;0;2;0;0;0;0;0;0;0;0;0;0;3;0;0;0;1023;4;70;Y;723;3;N;358;;402;18;https://doi.org/10.1016/j.jallcom.2019.152915
Cu-3Ti-2Mg;Cu-Ti alloys;95;0;0;0;0;0;0;0;0;0;0;0;2;0;0;0;0;0;0;0;0;0;0;3;0;0;0;1023;4;70;Y;723;0;N;279;;217;4;https://doi.org/10.1016/j.jallcom.2019.152915
Cu-3Ti-2Mg;Cu-Ti alloys;95;0;0;0;0;0;0;0;0;0;0;0;2;0;0;0;0;0;0;0;0;0;0;3;0;0;0;1023;4;70;Y;723;1;N;341;;250;17;https://doi.org/10.1016/j.jallcom.2019.152915
Cu-3Ti-2Mg;Cu-Ti alloys;95;0;0;0;0;0;0;0;0;0;0;0;2;0;0;0;0;0;0;0;0;0;0;3;0;0;0;1023;4;70;Y;723;2;N;356;;;18;https://doi.org/10.1016/j.jallcom.2019.152915
Cu-3Ti-2Mg;Cu-Ti alloys;95;0;0;0;0;0;0;0;0;0;0;0;2;0;0;0;0;0;0;0;0;0;0;3;0;0;0;1023;4;70;Y;723;4;N;345;;;17;https://doi.org/10.1016/j.jallcom.2019.152915
Cu-3Ti-2Mg;Cu-Ti alloys;95;0;0;0;0;0;0;0;0;0;0;0;2;0;0;0;0;0;0;0;0;0;0;3;0;0;0;1023;4;70;Y;723;5;N;328;;376;16;https://doi.org/10.1016/j.jallcom.2019.152915
Cu-3Ti-2Mg;Cu-Ti alloys;95;0;0;0;0;0;0;0;0;0;0;0;2;0;0;0;0;0;0;0;0;0;0;3;0;0;0;1023;4;0;N;;;N;160;;;5;https://doi.org/10.1016/j.jallcom.2019.152915
Cu-3Ti-2Mg;Cu-Ti alloys;95;0;0;0;0;0;0;0;0;0;0;0;2;0;0;0;0;0;0;0;0;0;0;3;0;0;0;1023;4;50;N;;;N;199;;;5;https://doi.org/10.1016/j.jallcom.2019.152915
Cu-3Ti-2Mg;Cu-Ti alloys;95;0;0;0;0;0;0;0;0;0;0;0;2;0;0;0;0;0;0;0;0;0;0;3;0;0;0;1023;4;70;N;;;N;278;;;4;https://doi.org/10.1016/j.jallcom.2019.152915
Cu-1.95Be;Cu-Be alloys;92.95;0;0;0;1.95;0;0;0;0;0;0;0;2;0;0;0;0;0.1;0;0;0;0;0;3;0;0;0;1193;;0;Y;593;0;N;102;200;499;13;https://doi.org/10.1016/j.msea.2019.138592
Cu-1.95Be;Cu-Be alloys;92.95;0;0;0;1.95;0;0;0;0;0;0;0;2;0;0;0;0;0.1;0;0;0;0;0;3;0;0;0;1193;;0;Y;593;1;N;341;1077;1301;15;https://doi.org/10.1016/j.msea.2019.138592
Cu-1.95Be;Cu-Be alloys;92.95;0;0;0;1.95;0;0;0;0;0;0;0;2;0;0;0;0;0.1;0;0;0;0;0;3;0;0;0;1193;;0;Y;593;2;N;345;1152;1364;17;https://doi.org/10.1016/j.msea.2019.138592
Cu-1.95Be;Cu-Be alloys;92.95;0;0;0;1.95;0;0;0;0;0;0;0;2;0;0;0;0;0.1;0;0;0;0;0;3;0;0;0;1193;;0;Y;593;4;N;369;1246;1389;21;https://doi.org/10.1016/j.msea.2019.138592
Cu-1.95Be;Cu-Be alloys;92.95;0;0;0;1.95;0;0;0;0;0;0;0;2;0;0;0;0;0.1;0;0;0;0;0;3;0;0;0;1193;;0;Y;593;6;N;369;1204;1384;22;https://doi.org/10.1016/j.msea.2019.138592
Cu-1.95Be;Cu-Be alloys;92.95;0;0;0;1.95;0;0;0;0;0;0;0;2;0;0;0;0;0.1;0;0;0;0;0;3;0;0;0;1193;;0;Y;593;8;N;369;1173;1385;23;https://doi.org/10.1016/j.msea.2019.138592
Cu-1.95Be;Cu-Be alloys;92.95;0;0;0;1.95;0;0;0;0;0;0;0;2;0;0;0;0;0.1;0;0;0;0;0;3;0;0;0;1193;;0;Y;593;10;N;360;1156;1348;24;https://doi.org/10.1016/j.msea.2019.138592
Cu-1.95Be;Cu-Be alloys;92.95;0;0;0;1.95;0;0;0;0;0;0;0;2;0;0;0;0;0.1;0;0;0;0;0;3;0;0;0;1193;;0;Y;593;12;N;352;1125;1306;24;https://doi.org/10.1016/j.msea.2019.138592
Cu-1.95Be;Cu-Be alloys;92.95;0;0;0;1.95;0;0;0;0;0;0;0;2;0;0;0;0;0.1;0;0;0;0;0;3;0;0;0;1193;;0;Y;593;14;N;344;1101;1269;24;https://doi.org/10.1016/j.msea.2019.138592
Cu-1.95Be;Cu-Be alloys;92.95;0;0;0;1.95;0;0;0;0;0;0;0;2;0;0;0;0;0.1;0;0;0;0;0;3;0;0;0;1193;;0;Y;593;16;N;337;1077;1226;25;https://doi.org/10.1016/j.msea.2019.138592
Cu-1.7Be;Cu-Be alloys;92.57;0.13;0;0;1.66;0;0;0;0;0;0;0;2;0;0;0;0;0.33;0;0;0;0.31;0;3;0;0;0;1053;0.17;0;Y;573;0;N;114;;;18;https://doi.org/10.1016/j.jallcom.2018.09.296
Cu-1.7Be;Cu-Be alloys;92.57;0.13;0;0;1.66;0;0;0;0;0;0;0;2;0;0;0;0;0.33;0;0;0;0.31;0;3;0;0;0;1053;0.17;0;Y;573;0.5;N;300;;;19;https://doi.org/10.1016/j.jallcom.2018.09.296
Cu-1.7Be;Cu-Be alloys;92.57;0.13;0;0;1.66;0;0;0;0;0;0;0;2;0;0;0;0;0.33;0;0;0;0.31;0;3;0;0;0;1053;0.17;0;Y;573;1;N;328;;;19;https://doi.org/10.1016/j.jallcom.2018.09.296
Cu-1.7Be;Cu-Be alloys;92.57;0.13;0;0;1.66;0;0;0;0;0;0;0;2;0;0;0;0;0.33;0;0;0;0.31;0;3;0;0;0;1053;0.17;0;Y;573;2;N;339;;;20;https://doi.org/10.1016/j.jallcom.2018.09.296
Cu-1.7Be;Cu-Be alloys;92.57;0.13;0;0;1.66;0;0;0;0;0;0;0;2;0;0;0;0;0.33;0;0;0;0.31;0;3;0;0;0;1053;0.17;0;Y;573;3;N;352;;;20;https://doi.org/10.1016/j.jallcom.2018.09.296
Cu-1.7Be;Cu-Be alloys;92.57;0.13;0;0;1.66;0;0;0;0;0;0;0;2;0;0;0;0;0.33;0;0;0;0.31;0;3;0;0;0;1053;0.17;0;Y;573;4;N;364;;;21;https://doi.org/10.1016/j.jallcom.2018.09.296
Cu-1.7Be;Cu-Be alloys;92.57;0.13;0;0;1.66;0;0;0;0;0;0;0;2;0;0;0;0;0.33;0;0;0;0.31;0;3;0;0;0;1053;0.17;0;Y;573;8;N;377;;;22;https://doi.org/10.1016/j.jallcom.2018.09.296
Cu-1.7Be;Cu-Be alloys;92.57;0.13;0;0;1.66;0;0;0;0;0;0;0;2;0;0;0;0;0.33;0;0;0;0.31;0;3;0;0;0;1053;0.17;0;Y;573;16;N;401;;;23;https://doi.org/10.1016/j.jallcom.2018.09.296
Cu-1.7Be;Cu-Be alloys;92.57;0.13;0;0;1.66;0;0;0;0;0;0;0;2;0;0;0;0;0.33;0;0;0;0.31;0;3;0;0;0;1053;0.17;0;Y;598;0;N;115;219;487;18;https://doi.org/10.1016/j.jallcom.2018.09.296
Cu-1.7Be;Cu-Be alloys;92.57;0.13;0;0;1.66;0;0;0;0;0;0;0;2;0;0;0;0;0.33;0;0;0;0.31;0;3;0;0;0;1053;0.17;0;Y;598;0.5;N;333;394;674;20;https://doi.org/10.1016/j.jallcom.2018.09.296
Cu-1.7Be;Cu-Be alloys;92.57;0.13;0;0;1.66;0;0;0;0;0;0;0;2;0;0;0;0;0.33;0;0;0;0.31;0;3;0;0;0;1053;0.17;0;Y;598;1;N;351;674;969;20;https://doi.org/10.1016/j.jallcom.2018.09.296
Cu-1.7Be;Cu-Be alloys;92.57;0.13;0;0;1.66;0;0;0;0;0;0;0;2;0;0;0;0;0.33;0;0;0;0.31;0;3;0;0;0;1053;0.17;0;Y;598;2;N;364;779;1043;21;https://doi.org/10.1016/j.jallcom.2018.09.296
Cu-1.7Be;Cu-Be alloys;92.57;0.13;0;0;1.66;0;0;0;0;0;0;0;2;0;0;0;0;0.33;0;0;0;0.31;0;3;0;0;0;1053;0.17;0;Y;598;3;N;375;779;1050;22;https://doi.org/10.1016/j.jallcom.2018.09.296
Cu-1.7Be;Cu-Be alloys;92.57;0.13;0;0;1.66;0;0;0;0;0;0;0;2;0;0;0;0;0.33;0;0;0;0.31;0;3;0;0;0;1053;0.17;0;Y;598;4;N;375;724;996;23;https://doi.org/10.1016/j.jallcom.2018.09.296
Cu-1.7Be;Cu-Be alloys;92.57;0.13;0;0;1.66;0;0;0;0;0;0;0;2;0;0;0;0;0.33;0;0;0;0.31;0;3;0;0;0;1053;0.17;0;Y;598;8;N;369;623;880;26;https://doi.org/10.1016/j.jallcom.2018.09.296
Cu-1.7Be;Cu-Be alloys;92.57;0.13;0;0;1.66;0;0;0;0;0;0;0;2;0;0;0;0;0.33;0;0;0;0.31;0;3;0;0;0;1053;0.17;0;Y;598;16;N;368;581;829;26;https://doi.org/10.1016/j.jallcom.2018.09.296
Cu-1.7Be;Cu-Be alloys;92.57;0.13;0;0;1.66;0;0;0;0;0;0;0;2;0;0;0;0;0.33;0;0;0;0.31;0;3;0;0;0;1053;0.17;0;Y;623;0;N;116;;;18;https://doi.org/10.1016/j.jallcom.2018.09.296
Cu-1.7Be;Cu-Be alloys;92.57;0.13;0;0;1.66;0;0;0;0;0;0;0;2;0;0;0;0;0.33;0;0;0;0.31;0;3;0;0;0;1053;0.17;0;Y;623;0.5;N;341;;;21;https://doi.org/10.1016/j.jallcom.2018.09.296
Cu-1.7Be;Cu-Be alloys;92.57;0.13;0;0;1.66;0;0;0;0;0;0;0;2;0;0;0;0;0.33;0;0;0;0.31;0;3;0;0;0;1053;0.17;0;Y;623;1;N;348;;;22;https://doi.org/10.1016/j.jallcom.2018.09.296
Cu-1.7Be;Cu-Be alloys;92.57;0.13;0;0;1.66;0;0;0;0;0;0;0;2;0;0;0;0;0.33;0;0;0;0.31;0;3;0;0;0;1053;0.17;0;Y;623;2;N;357;;;23;https://doi.org/10.1016/j.jallcom.2018.09.296
Cu-1.7Be;Cu-Be alloys;92.57;0.13;0;0;1.66;0;0;0;0;0;0;0;2;0;0;0;0;0.33;0;0;0;0.31;0;3;0;0;0;1053;0.17;0;Y;623;3;N;347;;;26;https://doi.org/10.1016/j.jallcom.2018.09.296
Cu-1.7Be;Cu-Be alloys;92.57;0.13;0;0;1.66;0;0;0;0;0;0;0;2;0;0;0;0;0.33;0;0;0;0.31;0;3;0;0;0;1053;0.17;0;Y;623;4;N;309;;;27;https://doi.org/10.1016/j.jallcom.2018.09.296
Cu-1.7Be;Cu-Be alloys;92.57;0.13;0;0;1.66;0;0;0;0;0;0;0;2;0;0;0;0;0.33;0;0;0;0.31;0;3;0;0;0;1053;0.17;0;Y;623;8;N;300;;;29;https://doi.org/10.1016/j.jallcom.2018.09.296
Cu-1.7Be;Cu-Be alloys;92.57;0.13;0;0;1.66;0;0;0;0;0;0;0;2;0;0;0;0;0.33;0;0;0;0.31;0;3;0;0;0;1053;0.17;0;Y;623;16;N;297;;;30;https://doi.org/10.1016/j.jallcom.2018.09.296
Cu-1.7Be;Cu-Be alloys;92.57;0.13;0;0;1.66;0;0;0;0;0;0;0;2;0;0;0;0;0.33;0;0;0;0.31;0;3;0;0;0;1053;0.17;0;Y;648;0;N;116;;;18;https://doi.org/10.1016/j.jallcom.2018.09.296
Cu-1.7Be;Cu-Be alloys;92.57;0.13;0;0;1.66;0;0;0;0;0;0;0;2;0;0;0;0;0.33;0;0;0;0.31;0;3;0;0;0;1053;0.17;0;Y;648;0.5;N;348;;;22;https://doi.org/10.1016/j.jallcom.2018.09.296
Cu-1.7Be;Cu-Be alloys;92.57;0.13;0;0;1.66;0;0;0;0;0;0;0;2;0;0;0;0;0.33;0;0;0;0.31;0;3;0;0;0;1053;0.17;0;Y;648;1;N;349;;;25;https://doi.org/10.1016/j.jallcom.2018.09.296
Cu-1.7Be;Cu-Be alloys;92.57;0.13;0;0;1.66;0;0;0;0;0;0;0;2;0;0;0;0;0.33;0;0;0;0.31;0;3;0;0;0;1053;0.17;0;Y;648;2;N;329;;;27;https://doi.org/10.1016/j.jallcom.2018.09.296
Cu-1.7Be;Cu-Be alloys;92.57;0.13;0;0;1.66;0;0;0;0;0;0;0;2;0;0;0;0;0.33;0;0;0;0.31;0;3;0;0;0;1053;0.17;0;Y;648;3;N;311;;;27;https://doi.org/10.1016/j.jallcom.2018.09.296
Cu-1.7Be;Cu-Be alloys;92.57;0.13;0;0;1.66;0;0;0;0;0;0;0;2;0;0;0;0;0.33;0;0;0;0.31;0;3;0;0;0;1053;0.17;0;Y;648;4;N;288;;;28;https://doi.org/10.1016/j.jallcom.2018.09.296
Cu-1.7Be;Cu-Be alloys;92.57;0.13;0;0;1.66;0;0;0;0;0;0;0;2;0;0;0;0;0.33;0;0;0;0.31;0;3;0;0;0;1053;0.17;0;Y;648;8;N;274;;;30;https://doi.org/10.1016/j.jallcom.2018.09.296
Cu-2Be;Cu-Be alloys;92.57;0.13;0;0;1.66;0;0;0;0;0;0;0;2;0;0;0;0;0.33;0;0;0;0.31;0;3;0;0;0;1053;0.17;0;Y;648;16;N;269;;;31;https://doi.org/10.1016/j.jallcom.2018.09.296
Cu-2Be;Cu-Be alloys;98;0;0;0;2;0;0;0;0;0;0;0;0;0;0;0;0;0;0;0;0;0;0;0;0;0;0;1073;;0;Y;593;0;N;;211;502;13;http://dx.doi.org/10.1016/j.msea.2012.08.007
Cu-2Be;Cu-Be alloys;98;0;0;0;2;0;0;0;0;0;0;0;0;0;0;0;0;0;0;0;0;0;0;0;0;0;0;1073;;0;Y;593;1;N;;1065;1302;17;http://dx.doi.org/10.1016/j.msea.2012.08.007
Cu-2Be;Cu-Be alloys;98;0;0;0;2;0;0;0;0;0;0;0;0;0;0;0;0;0;0;0;0;0;0;0;0;0;0;1073;;0;Y;593;2;N;;1162;1351;19;http://dx.doi.org/10.1016/j.msea.2012.08.007
Cu-2Be;Cu-Be alloys;98;0;0;0;2;0;0;0;0;0;0;0;0;0;0;0;0;0;0;0;0;0;0;0;0;0;0;1073;;0;Y;593;4;N;;1235;1361;21;http://dx.doi.org/10.1016/j.msea.2012.08.007
Cu-2Be;Cu-Be alloys;98;0;0;0;2;0;0;0;0;0;0;0;0;0;0;0;0;0;0;0;0;0;0;0;0;0;0;1073;;0;Y;593;8;N;;1164;1372;22;http://dx.doi.org/10.1016/j.msea.2012.08.007
Cu-2Be;Cu-Be alloys;98;0;0;0;2;0;0;0;0;0;0;0;0;0;0;0;0;0;0;0;0;0;0;0;0;0;0;1073;;0;Y;593;16;N;;1070;1225;24;http://dx.doi.org/10.1016/j.msea.2012.08.007